"rt","stimulus","button_pressed","trial_type","trial_index","time_elapsed","internal_node_id","key_press","test_part","next_elem","responses","question_order"
"33417","<p>Hi! Thanks so much for participating in our experiment! </p><p>Press any key to continue</p>","0","html-button-response","0","33421","0.0-0.0","","","","",""
"14761","<p>This session will last for 15min.</p><p> In each trial, you will see some symbols appearing one-by-one </p><p> and you will be asked to stop the sequence whenever you can answer some questions (more on this later). </p><p> Each sequence is independent from one another. </p><p> You will be paid extra based on the overall number of correct responses you give. </p><p> <br /> We will try this on some examples before we move on to the actual experiment: </p>","0","html-button-response","1","48184","0.0-1.0","","","","",""
"1566","Some sequences will be highly predictable, like these:","0","html-button-response","2","50752","0.0-2.0","","","","",""
"null","<div style=""font-size:65px;"">A</div>","","html-keyboard-response","3","52557","0.0-3.0-0.0-0.0","null","training","B","",""
"null","<div style=""font-size:65px;"">B</div>","","html-keyboard-response","4","53659","0.0-3.0-0.0-0.1","null","training","C","",""
"null","<div style=""font-size:65px;"">C</div>","","html-keyboard-response","5","54761","0.0-3.0-0.0-0.2","null","training","A","",""
"null","<div style=""font-size:65px;"">A</div>","","html-keyboard-response","6","55863","0.0-3.0-0.0-0.3","null","training","B","",""
"null","<div style=""font-size:65px;"">B</div>","","html-keyboard-response","7","56966","0.0-3.0-0.0-0.4","null","training","C","",""
"null","<div style=""font-size:65px;"">C</div>","","html-keyboard-response","8","58068","0.0-3.0-0.0-0.5","null","training","A","",""
"null","<div style=""font-size:65px;"">A</div>","","html-keyboard-response","9","59171","0.0-3.0-0.0-0.6","null","training","B","",""
"null","<div style=""font-size:65px;"">B</div>","","html-keyboard-response","10","60273","0.0-3.0-0.0-0.7","null","training","C","",""
"null","<div style=""font-size:65px;"">C</div>","","html-keyboard-response","11","61375","0.0-3.0-0.0-0.8","null","training","A","",""
"null","<div style=""font-size:65px;"">A</div>","","html-keyboard-response","12","62478","0.0-3.0-0.0-0.9","null","training","B","",""
"null","<div style=""font-size:65px;"">B</div>","","html-keyboard-response","13","63581","0.0-3.0-0.0-0.10","null","training","C","",""
"null","<div style=""font-size:65px;"">C</div>","","html-keyboard-response","14","64682","0.0-3.0-0.0-0.11","null","training","A","",""
"null","<div style=""font-size:65px;"">A</div>","","html-keyboard-response","15","65784","0.0-3.0-0.0-0.12","null","training","B","",""
"613","<div style=""font-size:65px;"">B</div>","","html-keyboard-response","16","66698","0.0-3.0-0.0-0.13","39","training","C","",""
"null","<div style=""font-size:65px;"">C</div>","","html-keyboard-response","17","67800","0.0-3.0-0.0-0.14","null","training","A","",""
"null","<div style=""font-size:65px;"">A</div>","","html-keyboard-response","18","68901","0.0-3.0-0.0-0.15","null","training","B","",""
"null","<div style=""font-size:65px;"">B</div>","","html-keyboard-response","19","70003","0.0-3.0-0.0-0.16","null","training","C","",""
"null","<div style=""font-size:65px;"">C</div>","","html-keyboard-response","20","71104","0.0-3.0-0.0-0.17","null","training","A","",""
"474","<div style=""font-size:65px;"">A</div>","","html-keyboard-response","21","71880","0.0-3.0-0.0-0.18","32","training","B","",""
"null","","","html-keyboard-response","22","72183","0.0-3.0-0.0-0.19","null","training","C","",""
"5958","","","survey-likert","23","78143","0.0-3.0-1.0","","","","{""Q0"":9}","[0]"
"9610","","","survey-multi-choice","24","87756","0.0-3.0-2.0","","","","{""Q0"":""I do not know""}","[0]"
"1345.9999999999854","Okay, let's move to the next trial","0","html-button-response","25","89103","0.0-3.0-3.0","","","","",""
"null","<div style=""font-size:65px;"">A</div>","","html-keyboard-response","26","89904","0.0-4.0-0.0-0.0","null","training","A","",""
"null","<div style=""font-size:65px;"">A</div>","","html-keyboard-response","27","91006","0.0-4.0-0.0-0.1","null","training","A","",""
"null","<div style=""font-size:65px;"">A</div>","","html-keyboard-response","28","92109","0.0-4.0-0.0-0.2","null","training","A","",""
"null","<div style=""font-size:65px;"">A</div>","","html-keyboard-response","29","93211","0.0-4.0-0.0-0.3","null","training","A","",""
"null","<div style=""font-size:65px;"">A</div>","","html-keyboard-response","30","94314","0.0-4.0-0.0-0.4","null","training","A","",""
"null","<div style=""font-size:65px;"">A</div>","","html-keyboard-response","31","95417","0.0-4.0-0.0-0.5","null","training","A","",""
"null","<div style=""font-size:65px;"">A</div>","","html-keyboard-response","32","96519","0.0-4.0-0.0-0.6","null","training","A","",""
"null","<div style=""font-size:65px;"">A</div>","","html-keyboard-response","33","97622","0.0-4.0-0.0-0.7","null","training","A","",""
"null","<div style=""font-size:65px;"">A</div>","","html-keyboard-response","34","98724","0.0-4.0-0.0-0.8","null","training","A","",""
"null","<div style=""font-size:65px;"">A</div>","","html-keyboard-response","35","99827","0.0-4.0-0.0-0.9","null","training","A","",""
"null","<div style=""font-size:65px;"">A</div>","","html-keyboard-response","36","100928","0.0-4.0-0.0-0.10","null","training","A","",""
"null","<div style=""font-size:65px;"">A</div>","","html-keyboard-response","37","102030","0.0-4.0-0.0-0.11","null","training","A","",""
"null","<div style=""font-size:65px;"">A</div>","","html-keyboard-response","38","103132","0.0-4.0-0.0-0.12","null","training","A","",""
"null","<div style=""font-size:65px;"">A</div>","","html-keyboard-response","39","104233","0.0-4.0-0.0-0.13","null","training","A","",""
"null","<div style=""font-size:65px;"">A</div>","","html-keyboard-response","40","105336","0.0-4.0-0.0-0.14","null","training","A","",""
"null","<div style=""font-size:65px;"">A</div>","","html-keyboard-response","41","106437","0.0-4.0-0.0-0.15","null","training","A","",""
"null","<div style=""font-size:65px;"">A</div>","","html-keyboard-response","42","107539","0.0-4.0-0.0-0.16","null","training","A","",""
"null","<div style=""font-size:65px;"">A</div>","","html-keyboard-response","43","108641","0.0-4.0-0.0-0.17","null","training","A","",""
"null","<div style=""font-size:65px;"">A</div>","","html-keyboard-response","44","109742","0.0-4.0-0.0-0.18","null","training","A","",""
"null","<div style=""font-size:65px;"">A</div>","","html-keyboard-response","45","110844","0.0-4.0-0.0-0.19","null","training","A","",""
"244","<div style=""font-size:65px;"">A</div>","","html-keyboard-response","46","111389","0.0-4.0-0.0-0.20","32","training","A","",""
"null","","","html-keyboard-response","47","111692","0.0-4.0-0.0-0.21","null","training","A","",""
"3216","","","survey-likert","48","114909","0.0-4.0-1.0","","","","{""Q0"":9}","[0]"
"7839.999999999985","","","survey-multi-choice","49","122750","0.0-4.0-2.0","","","","{""Q0"":""A""}","[0]"
"1693","Correct! + $1","0","html-button-response","50","124444","0.0-4.0-3.0","","","","",""
"2464","<p> Some sequences may be completely random, like this one: </p>","0","html-button-response","51","126909","0.0-5.0","","","","",""
"null","<div style=""font-size:65px;"">A</div>","","html-keyboard-response","52","127711","0.0-6.0-0.0-0.0","null","training","B","",""
"null","<div style=""font-size:65px;"">B</div>","","html-keyboard-response","53","128813","0.0-6.0-0.0-0.1","null","training","B","",""
"null","<div style=""font-size:65px;"">B</div>","","html-keyboard-response","54","129914","0.0-6.0-0.0-0.2","null","training","C","",""
"null","<div style=""font-size:65px;"">C</div>","","html-keyboard-response","55","131015","0.0-6.0-0.0-0.3","null","training","B","",""
"null","<div style=""font-size:65px;"">B</div>","","html-keyboard-response","56","132117","0.0-6.0-0.0-0.4","null","training","A","",""
"null","<div style=""font-size:65px;"">A</div>","","html-keyboard-response","57","133219","0.0-6.0-0.0-0.5","null","training","C","",""
"null","<div style=""font-size:65px;"">C</div>","","html-keyboard-response","58","134320","0.0-6.0-0.0-0.6","null","training","C","",""
"null","<div style=""font-size:65px;"">C</div>","","html-keyboard-response","59","135422","0.0-6.0-0.0-0.7","null","training","B","",""
"null","<div style=""font-size:65px;"">B</div>","","html-keyboard-response","60","136524","0.0-6.0-0.0-0.8","null","training","A","",""
"null","<div style=""font-size:65px;"">A</div>","","html-keyboard-response","61","137625","0.0-6.0-0.0-0.9","null","training","C","",""
"null","<div style=""font-size:65px;"">C</div>","","html-keyboard-response","62","138727","0.0-6.0-0.0-0.10","null","training","B","",""
"null","<div style=""font-size:65px;"">B</div>","","html-keyboard-response","63","139828","0.0-6.0-0.0-0.11","null","training","C","",""
"null","<div style=""font-size:65px;"">C</div>","","html-keyboard-response","64","140932","0.0-6.0-0.0-0.12","null","training","B","",""
"null","<div style=""font-size:65px;"">B</div>","","html-keyboard-response","65","142033","0.0-6.0-0.0-0.13","null","training","A","",""
"null","<div style=""font-size:65px;"">A</div>","","html-keyboard-response","66","143136","0.0-6.0-0.0-0.14","null","training","A ","",""
"null","<div style=""font-size:65px;"">A   </div>","","html-keyboard-response","67","144237","0.0-6.0-0.0-0.15","null","training","B","",""
"null","<div style=""font-size:65px;"">B</div>","","html-keyboard-response","68","145339","0.0-6.0-0.0-0.16","null","training","C","",""
"null","<div style=""font-size:65px;"">C</div>","","html-keyboard-response","69","146441","0.0-6.0-0.0-0.17","null","training","C","",""
"null","<div style=""font-size:65px;"">C</div>","","html-keyboard-response","70","147544","0.0-6.0-0.0-0.18","null","training","B","",""
"null","<div style=""font-size:65px;"">B</div>","","html-keyboard-response","71","148645","0.0-6.0-0.0-0.19","null","training","B","",""
"null","<div style=""font-size:65px;"">B</div>","","html-keyboard-response","72","149746","0.0-6.0-0.0-0.20","null","training","A","",""
"null","<div style=""font-size:65px;"">A</div>","","html-keyboard-response","73","150849","0.0-6.0-0.0-0.21","null","training","A","",""
"null","<div style=""font-size:65px;"">A</div>","","html-keyboard-response","74","151950","0.0-6.0-0.0-0.22","null","training","C","",""
"null","<div style=""font-size:65px;"">C</div>","","html-keyboard-response","75","153052","0.0-6.0-0.0-0.23","null","training","A","",""
"null","<div style=""font-size:65px;"">A</div>","","html-keyboard-response","76","154154","0.0-6.0-0.0-0.24","null","training","C","",""
"626","<div style=""font-size:65px;"">C</div>","","html-keyboard-response","77","155081","0.0-6.0-0.0-0.25","32","training","B","",""
"null","","","html-keyboard-response","78","155384","0.0-6.0-0.0-0.26","null","training","C","",""
"10045","","","survey-likert","79","165431","0.0-6.0-1.0","","","","{""Q0"":0}","[0]"
"16651","","","survey-multi-choice","80","182083","0.0-6.0-2.0","","","","{""Q0"":""B""}","[0]"
"2012","Correct! + $1","0","html-button-response","81","184096","0.0-6.0-3.0","","","","",""
"6450","<p> You are now ready to proceed with the actual experiment. </p><p>Some sequences will be random, some will not, and others will be somewhere inbetween </p>","0","html-button-response","82","190546","0.0-7.0","","","","",""
"null","<div style=""font-size:65px;"">A</div>","","html-keyboard-response","83","191348","0.0-8.0-0.0-0.0","null","test","B","",""
"null","<div style=""font-size:65px;"">B</div>","","html-keyboard-response","84","192450","0.0-8.0-0.0-0.1","null","test","B","",""
"null","<div style=""font-size:65px;"">B</div>","","html-keyboard-response","85","193552","0.0-8.0-0.0-0.2","null","test","A","",""
"null","<div style=""font-size:65px;"">A</div>","","html-keyboard-response","86","194655","0.0-8.0-0.0-0.3","null","test","A","",""
"null","<div style=""font-size:65px;"">A</div>","","html-keyboard-response","87","195757","0.0-8.0-0.0-0.4","null","test","B","",""
"null","<div style=""font-size:65px;"">B</div>","","html-keyboard-response","88","196859","0.0-8.0-0.0-0.5","null","test","B","",""
"null","<div style=""font-size:65px;"">B</div>","","html-keyboard-response","89","197961","0.0-8.0-0.0-0.6","null","test","B","",""
"null","<div style=""font-size:65px;"">B</div>","","html-keyboard-response","90","199063","0.0-8.0-0.0-0.7","null","test","C","",""
"null","<div style=""font-size:65px;"">C</div>","","html-keyboard-response","91","200165","0.0-8.0-0.0-0.8","null","test","A","",""
"null","<div style=""font-size:65px;"">A</div>","","html-keyboard-response","92","201267","0.0-8.0-0.0-0.9","null","test","A","",""
"null","<div style=""font-size:65px;"">A</div>","","html-keyboard-response","93","202369","0.0-8.0-0.0-0.10","null","test","B","",""
"null","<div style=""font-size:65px;"">B</div>","","html-keyboard-response","94","203471","0.0-8.0-0.0-0.11","null","test","A","",""
"null","<div style=""font-size:65px;"">A</div>","","html-keyboard-response","95","204573","0.0-8.0-0.0-0.12","null","test","B","",""
"null","<div style=""font-size:65px;"">B</div>","","html-keyboard-response","96","205675","0.0-8.0-0.0-0.13","null","test","C","",""
"null","<div style=""font-size:65px;"">C</div>","","html-keyboard-response","97","206777","0.0-8.0-0.0-0.14","null","test","B","",""
"null","<div style=""font-size:65px;"">B</div>","","html-keyboard-response","98","207879","0.0-8.0-0.0-0.15","null","test","A","",""
"null","<div style=""font-size:65px;"">A</div>","","html-keyboard-response","99","208981","0.0-8.0-0.0-0.16","null","test","B","",""
"null","<div style=""font-size:65px;"">B</div>","","html-keyboard-response","100","210083","0.0-8.0-0.0-0.17","null","test","B","",""
"null","<div style=""font-size:65px;"">B</div>","","html-keyboard-response","101","211185","0.0-8.0-0.0-0.18","null","test","C","",""
"null","<div style=""font-size:65px;"">C</div>","","html-keyboard-response","102","212287","0.0-8.0-0.0-0.19","null","test","A","",""
"null","<div style=""font-size:65px;"">A</div>","","html-keyboard-response","103","213390","0.0-8.0-0.0-0.20","null","test","C","",""
"609","<div style=""font-size:65px;"">C</div>","","html-keyboard-response","104","214300","0.0-8.0-0.0-0.21","32","test","C","",""
"null","","","html-keyboard-response","105","214602","0.0-8.0-0.0-0.22","null","test","A","",""
"5414","","","survey-likert","106","220017","0.0-8.0-1.0","","","","{""Q0"":2}","[0]"
"18556","","","survey-multi-choice","107","238575","0.0-8.0-2.0","","","","{""Q0"":""C""}","[0]"
"1185.999999999971","Correct! + $1","0","html-button-response","108","239762","0.0-8.0-3.0","","","","",""
"null","<div style=""font-size:65px;"">A</div>","","html-keyboard-response","109","240564","0.0-9.0-0.0-0.0","null","test","A","",""
"null","<div style=""font-size:65px;"">A</div>","","html-keyboard-response","110","241667","0.0-9.0-0.0-0.1","null","test","C","",""
"null","<div style=""font-size:65px;"">C</div>","","html-keyboard-response","111","242770","0.0-9.0-0.0-0.2","null","test","A","",""
"null","<div style=""font-size:65px;"">A</div>","","html-keyboard-response","112","243872","0.0-9.0-0.0-0.3","null","test","C","",""
"null","<div style=""font-size:65px;"">C</div>","","html-keyboard-response","113","244974","0.0-9.0-0.0-0.4","null","test","B","",""
"null","<div style=""font-size:65px;"">B</div>","","html-keyboard-response","114","246076","0.0-9.0-0.0-0.5","null","test","A","",""
"null","<div style=""font-size:65px;"">A</div>","","html-keyboard-response","115","247179","0.0-9.0-0.0-0.6","null","test","C","",""
"null","<div style=""font-size:65px;"">C</div>","","html-keyboard-response","116","248282","0.0-9.0-0.0-0.7","null","test","C","",""
"null","<div style=""font-size:65px;"">C</div>","","html-keyboard-response","117","249384","0.0-9.0-0.0-0.8","null","test","C","",""
"null","<div style=""font-size:65px;"">C</div>","","html-keyboard-response","118","250486","0.0-9.0-0.0-0.9","null","test","C","",""
"null","<div style=""font-size:65px;"">C</div>","","html-keyboard-response","119","251589","0.0-9.0-0.0-0.10","null","test","A","",""
"null","<div style=""font-size:65px;"">A</div>","","html-keyboard-response","120","252692","0.0-9.0-0.0-0.11","null","test","A","",""
"null","<div style=""font-size:65px;"">A</div>","","html-keyboard-response","121","253794","0.0-9.0-0.0-0.12","null","test","C","",""
"null","<div style=""font-size:65px;"">C</div>","","html-keyboard-response","122","254897","0.0-9.0-0.0-0.13","null","test","A","",""
"null","<div style=""font-size:65px;"">A</div>","","html-keyboard-response","123","255999","0.0-9.0-0.0-0.14","null","test","B","",""
"null","<div style=""font-size:65px;"">B</div>","","html-keyboard-response","124","257102","0.0-9.0-0.0-0.15","null","test","C","",""
"null","<div style=""font-size:65px;"">C</div>","","html-keyboard-response","125","258203","0.0-9.0-0.0-0.16","null","test","B","",""
"null","<div style=""font-size:65px;"">B</div>","","html-keyboard-response","126","259304","0.0-9.0-0.0-0.17","null","test","A","",""
"null","<div style=""font-size:65px;"">A</div>","","html-keyboard-response","127","260406","0.0-9.0-0.0-0.18","null","test","C","",""
"null","<div style=""font-size:65px;"">C</div>","","html-keyboard-response","128","261509","0.0-9.0-0.0-0.19","null","test","B","",""
"null","<div style=""font-size:65px;"">B</div>","","html-keyboard-response","129","262610","0.0-9.0-0.0-0.20","null","test","C","",""
"null","<div style=""font-size:65px;"">C</div>","","html-keyboard-response","130","263713","0.0-9.0-0.0-0.21","null","test","A","",""
"null","<div style=""font-size:65px;"">A</div>","","html-keyboard-response","131","264815","0.0-9.0-0.0-0.22","null","test","B","",""
"null","<div style=""font-size:65px;"">B</div>","","html-keyboard-response","132","265917","0.0-9.0-0.0-0.23","null","test","C","",""
"null","<div style=""font-size:65px;"">C</div>","","html-keyboard-response","133","267019","0.0-9.0-0.0-0.24","null","test","B","",""
"null","<div style=""font-size:65px;"">B</div>","","html-keyboard-response","134","268122","0.0-9.0-0.0-0.25","null","test","B","",""
"null","<div style=""font-size:65px;"">B</div>","","html-keyboard-response","135","269224","0.0-9.0-0.0-0.26","null","test","A","",""
"null","<div style=""font-size:65px;"">A</div>","","html-keyboard-response","136","270328","0.0-9.0-0.0-0.27","null","test","A","",""
"null","<div style=""font-size:65px;"">A</div>","","html-keyboard-response","137","271429","0.0-9.0-0.0-0.28","null","test","A","",""
"15367","","","survey-likert","138","287099","0.0-9.0-1.0","","","","{""Q0"":4}","[0]"
"6278.000000000058","","","survey-multi-choice","139","293378","0.0-9.0-2.0","","","","{""Q0"":""A""}","[0]"
"833","Correct! + $1","0","html-button-response","140","294213","0.0-9.0-3.0","","","","",""
"null","<div style=""font-size:65px;"">A</div>","","html-keyboard-response","141","295015","0.0-10.0-0.0-0.0","null","test","C","",""
"null","<div style=""font-size:65px;"">C</div>","","html-keyboard-response","142","296117","0.0-10.0-0.0-0.1","null","test","B","",""
"null","<div style=""font-size:65px;"">B</div>","","html-keyboard-response","143","297219","0.0-10.0-0.0-0.2","null","test","C","",""
"null","<div style=""font-size:65px;"">C</div>","","html-keyboard-response","144","298321","0.0-10.0-0.0-0.3","null","test","A","",""
"null","<div style=""font-size:65px;"">A</div>","","html-keyboard-response","145","299423","0.0-10.0-0.0-0.4","null","test","B","",""
"null","<div style=""font-size:65px;"">B</div>","","html-keyboard-response","146","300526","0.0-10.0-0.0-0.5","null","test","A","",""
"null","<div style=""font-size:65px;"">A</div>","","html-keyboard-response","147","301628","0.0-10.0-0.0-0.6","null","test","A","",""
"null","<div style=""font-size:65px;"">A</div>","","html-keyboard-response","148","302730","0.0-10.0-0.0-0.7","null","test","B","",""
"null","<div style=""font-size:65px;"">B</div>","","html-keyboard-response","149","303832","0.0-10.0-0.0-0.8","null","test","A","",""
"null","<div style=""font-size:65px;"">A</div>","","html-keyboard-response","150","304934","0.0-10.0-0.0-0.9","null","test","C","",""
"null","<div style=""font-size:65px;"">C</div>","","html-keyboard-response","151","306036","0.0-10.0-0.0-0.10","null","test","B","",""
"null","<div style=""font-size:65px;"">B</div>","","html-keyboard-response","152","307138","0.0-10.0-0.0-0.11","null","test","C","",""
"null","<div style=""font-size:65px;"">C</div>","","html-keyboard-response","153","308240","0.0-10.0-0.0-0.12","null","test","C","",""
"null","<div style=""font-size:65px;"">C</div>","","html-keyboard-response","154","309341","0.0-10.0-0.0-0.13","null","test","A","",""
"null","<div style=""font-size:65px;"">A</div>","","html-keyboard-response","155","310443","0.0-10.0-0.0-0.14","null","test","A","",""
"null","<div style=""font-size:65px;"">A</div>","","html-keyboard-response","156","311546","0.0-10.0-0.0-0.15","null","test","C","",""
"null","<div style=""font-size:65px;"">C</div>","","html-keyboard-response","157","312649","0.0-10.0-0.0-0.16","null","test","B","",""
"null","<div style=""font-size:65px;"">B</div>","","html-keyboard-response","158","313751","0.0-10.0-0.0-0.17","null","test","C","",""
"null","<div style=""font-size:65px;"">C</div>","","html-keyboard-response","159","314853","0.0-10.0-0.0-0.18","null","test","C","",""
"null","<div style=""font-size:65px;"">C</div>","","html-keyboard-response","160","315955","0.0-10.0-0.0-0.19","null","test","C","",""
"null","<div style=""font-size:65px;"">C</div>","","html-keyboard-response","161","317056","0.0-10.0-0.0-0.20","null","test","C","",""
"null","<div style=""font-size:65px;"">C</div>","","html-keyboard-response","162","318158","0.0-10.0-0.0-0.21","null","test","B","",""
"null","<div style=""font-size:65px;"">B</div>","","html-keyboard-response","163","319259","0.0-10.0-0.0-0.22","null","test","C","",""
"null","<div style=""font-size:65px;"">C</div>","","html-keyboard-response","164","320360","0.0-10.0-0.0-0.23","null","test","A","",""
"null","<div style=""font-size:65px;"">A</div>","","html-keyboard-response","165","321461","0.0-10.0-0.0-0.24","null","test","B","",""
"null","<div style=""font-size:65px;"">B</div>","","html-keyboard-response","166","322563","0.0-10.0-0.0-0.25","null","test","C","",""
"null","<div style=""font-size:65px;"">C</div>","","html-keyboard-response","167","323665","0.0-10.0-0.0-0.26","null","test","C","",""
"null","<div style=""font-size:65px;"">C</div>","","html-keyboard-response","168","324768","0.0-10.0-0.0-0.27","null","test","C","",""
"null","<div style=""font-size:65px;"">C</div>","","html-keyboard-response","169","325870","0.0-10.0-0.0-0.28","null","test","B","",""
"7174","","","survey-likert","170","333346","0.0-10.0-1.0","","","","{""Q0"":1}","[0]"
"3335","","","survey-multi-choice","171","336683","0.0-10.0-2.0","","","","{""Q0"":""A""}","[0]"
"2814","Incorrect! + $0<p> The correct choice was: C","0","html-button-response","172","339498","0.0-10.0-3.0","","","","",""
"null","<div style=""font-size:65px;"">C</div>","","html-keyboard-response","173","340300","0.0-11.0-0.0-0.0","null","test","C","",""
"null","<div style=""font-size:65px;"">C</div>","","html-keyboard-response","174","341403","0.0-11.0-0.0-0.1","null","test","C","",""
"null","<div style=""font-size:65px;"">C</div>","","html-keyboard-response","175","342505","0.0-11.0-0.0-0.2","null","test","C","",""
"null","<div style=""font-size:65px;"">C</div>","","html-keyboard-response","176","343606","0.0-11.0-0.0-0.3","null","test","C","",""
"null","<div style=""font-size:65px;"">C</div>","","html-keyboard-response","177","344708","0.0-11.0-0.0-0.4","null","test","C","",""
"null","<div style=""font-size:65px;"">C</div>","","html-keyboard-response","178","345809","0.0-11.0-0.0-0.5","null","test","C","",""
"null","<div style=""font-size:65px;"">C</div>","","html-keyboard-response","179","346911","0.0-11.0-0.0-0.6","null","test","C","",""
"null","<div style=""font-size:65px;"">C</div>","","html-keyboard-response","180","348014","0.0-11.0-0.0-0.7","null","test","C","",""
"null","<div style=""font-size:65px;"">C</div>","","html-keyboard-response","181","349116","0.0-11.0-0.0-0.8","null","test","C","",""
"null","<div style=""font-size:65px;"">C</div>","","html-keyboard-response","182","350219","0.0-11.0-0.0-0.9","null","test","C","",""
"null","<div style=""font-size:65px;"">C</div>","","html-keyboard-response","183","351320","0.0-11.0-0.0-0.10","null","test","C","",""
"null","<div style=""font-size:65px;"">C</div>","","html-keyboard-response","184","352422","0.0-11.0-0.0-0.11","null","test","C","",""
"null","<div style=""font-size:65px;"">C</div>","","html-keyboard-response","185","353524","0.0-11.0-0.0-0.12","null","test","C","",""
"null","<div style=""font-size:65px;"">C</div>","","html-keyboard-response","186","354625","0.0-11.0-0.0-0.13","null","test","C","",""
"null","<div style=""font-size:65px;"">C</div>","","html-keyboard-response","187","355728","0.0-11.0-0.0-0.14","null","test","A","",""
"null","<div style=""font-size:65px;"">A</div>","","html-keyboard-response","188","356831","0.0-11.0-0.0-0.15","null","test","A","",""
"null","<div style=""font-size:65px;"">A</div>","","html-keyboard-response","189","357933","0.0-11.0-0.0-0.16","null","test","A","",""
"null","<div style=""font-size:65px;"">A</div>","","html-keyboard-response","190","359035","0.0-11.0-0.0-0.17","null","test","A","",""
"null","<div style=""font-size:65px;"">A</div>","","html-keyboard-response","191","360137","0.0-11.0-0.0-0.18","null","test","A","",""
"","","","html-keyboard-response","192","360440","0.0-11.0-0.0-0.19","","test","A","",""
