"rt","stimulus","key_press","trial_type","trial_index","time_elapsed","internal_node_id","test_part","responses","question_order"
"8817","<p>Hi! Thanks so much for participating in our experiment! </p><p>Press any key to continue</p>","32","html-keyboard-response","0","8823","0.0-0.0","","",""
"19601","<p>This session will last for 10min.</p><p> In each trial, you will see a sequence consisting A's, B's and/or C's. </p> <p> After seeing the sequence, press any key, and you will be asked </p> <p> to judge how likely it is that the sequence came from a random process. </p><p> Each sequence is independent from one another. </p>","32","html-keyboard-response","1","28426","0.0-1.0","","",""
"10996","<div style=""font-size:45px;"">C  A  C  C  A  C  C  A  C  C                              </div>","32","html-keyboard-response","2","40424","0.0-2.0-0.0","test","",""
"21174","","","survey-likert","3","62102","0.0-2.0-1.0","","{""Q0"":2}","[0]"
"3733.9999999999927","<div style=""font-size:45px;"">B  A  C  A                                                </div>","32","html-keyboard-response","4","65837","0.0-2.0-0.1","test","",""
"4217","","","survey-likert","5","70557","0.0-2.0-1.1","","{""Q0"":8}","[0]"
"8410","<div style=""font-size:45px;"">A  B  B  A  A  B  B  C                                    </div>","32","html-keyboard-response","6","78970","0.0-2.0-0.2","test","",""
"3553.0000000000146","","","survey-likert","7","83027","0.0-2.0-1.2","","{""Q0"":5}","[0]"
"8620.999999999985","<div style=""font-size:45px;"">C  A  A  B  C  A  A  A  C  B  B  B  A  B  C  A            </div>","32","html-keyboard-response","8","91649","0.0-2.0-0.3","test","",""
"4906","","","survey-likert","9","97058","0.0-2.0-1.3","","{""Q0"":5}","[0]"
"2124","<div style=""font-size:45px;"">C  C  B  C                                                </div>","32","html-keyboard-response","10","99185","0.0-2.0-0.4","test","",""
"12420","","","survey-likert","11","112108","0.0-2.0-1.4","","{""Q0"":2}","[0]"
"3725","<div style=""font-size:45px;"">C  C  C  C  C  A  A  A  A  A  A  A  A  A                  </div>","32","html-keyboard-response","12","115836","0.0-2.0-0.5","test","",""
"2543.0000000000146","","","survey-likert","13","118881","0.0-2.0-1.5","","{""Q0"":2}","[0]"
"7616.999999999985","<div style=""font-size:45px;"">C  A  B  B  B  B  C  C  C  C  C  C  C  C  C  C            </div>","32","html-keyboard-response","14","126500","0.0-2.0-0.6","test","",""
"3373.0000000000146","","","survey-likert","15","130375","0.0-2.0-1.6","","{""Q0"":8}","[0]"
"14324.000000000015","<div style=""font-size:45px;"">A  A  A  A  B  B  B  B  B  B  B  C  C  C  A  A  A  A  A  A</div>","32","html-keyboard-response","16","144702","0.0-2.0-0.7","test","",""
"3708.999999999971","","","survey-likert","17","148914","0.0-2.0-1.7","","{""Q0"":4}","[0]"
"5762","<div style=""font-size:45px;"">A  A  B  A  A  B  A  A  B  A  A  B  A  A                  </div>","32","html-keyboard-response","18","154678","0.0-2.0-0.8","test","",""
"3224","","","survey-likert","19","158405","0.0-2.0-1.8","","{""Q0"":0}","[0]"
"1655","<div style=""font-size:45px;"">B  C  A  A  A  B                                          </div>","32","html-keyboard-response","20","160064","0.0-2.0-0.9","test","",""
"2519.000000000029","","","survey-likert","21","163086","0.0-2.0-1.9","","{""Q0"":7}","[0]"
"1661","<div style=""font-size:45px;"">B  C  C  B  C  C  B  C  C  B  C  C                        </div>","32","html-keyboard-response","22","164749","0.0-2.0-0.10","test","",""
"1596.000000000029","","","survey-likert","23","166848","0.0-2.0-1.10","","{""Q0"":0}","[0]"
"1991","<div style=""font-size:45px;"">A  C  A  B                                                </div>","32","html-keyboard-response","24","168841","0.0-2.0-0.11","test","",""
"1842.999999999971","","","survey-likert","25","171185","0.0-2.0-1.11","","{""Q0"":8}","[0]"
"883","<div style=""font-size:45px;"">A  A  B  A                                                </div>","32","html-keyboard-response","26","172072","0.0-2.0-0.12","test","",""
"5733.999999999971","","","survey-likert","27","178308","0.0-2.0-1.12","","{""Q0"":4}","[0]"
"1832","<div style=""font-size:45px;"">C  A  C  C  A  B  B  B  B  B                              </div>","32","html-keyboard-response","28","180144","0.0-2.0-0.13","test","",""
"3077","","","survey-likert","29","183724","0.0-2.0-1.13","","{""Q0"":6}","[0]"
"4068","<div style=""font-size:45px;"">A  B  A  A  B  A  A  A  A  A  A  A  A  A  A  C  C  C      </div>","32","html-keyboard-response","30","187794","0.0-2.0-0.14","test","",""
"3703","","","survey-likert","31","191999","0.0-2.0-1.14","","{""Q0"":8}","[0]"
"10255","<div style=""font-size:45px;"">C  A  C  A  C  A  C  A  C  A  C  A  C  A  B  B  B  B      </div>","32","html-keyboard-response","32","202257","0.0-2.0-0.15","test","",""
"5334.999999999971","","","survey-likert","33","208095","0.0-2.0-1.15","","{""Q0"":7}","[0]"
"5771","<div style=""font-size:45px;"">C  A  A  B  A  B  B  B  B  A  A  A  A  B  C  C  B  B  B  B</div>","32","html-keyboard-response","34","213869","0.0-2.0-0.16","test","",""
"2685","","","survey-likert","35","217056","0.0-2.0-1.16","","{""Q0"":7}","[0]"
"10064","<div style=""font-size:45px;"">A  B  C  B  C  A  C  C  C  B  A  A  B  A  C  C            </div>","32","html-keyboard-response","36","227123","0.0-2.0-0.17","test","",""
"2121","","","survey-likert","37","229746","0.0-2.0-1.17","","{""Q0"":7}","[0]"
"2688","<div style=""font-size:45px;"">C  C  A  B  A  A  A  A  C  B  B  B  B  B  B  B  B  A      </div>","32","html-keyboard-response","38","232436","0.0-2.0-0.18","test","",""
"1907","","","survey-likert","39","234846","0.0-2.0-1.18","","{""Q0"":7}","[0]"
"6299","<div style=""font-size:45px;"">A  C  C  C  C  B  B  B  B  B  B  B  B  C  C  C  C  C  B  B</div>","32","html-keyboard-response","40","241147","0.0-2.0-0.19","test","",""
"1722","","","survey-likert","41","243372","0.0-2.0-1.19","","{""Q0"":7}","[0]"
"935.9999999999709","<div style=""font-size:45px;"">B  C  B  C                                                </div>","32","html-keyboard-response","42","244310","0.0-2.0-0.20","test","",""
"3088","","","survey-likert","43","247900","0.0-2.0-1.20","","{""Q0"":3}","[0]"
"1110","<div style=""font-size:45px;"">A  C  A  A  A  A                                          </div>","32","html-keyboard-response","44","249013","0.0-2.0-0.21","test","",""
"1947","","","survey-likert","45","251462","0.0-2.0-1.21","","{""Q0"":7}","[0]"
"8589","<div style=""font-size:45px;"">A  A  B  B  C  C  C  C  A  B  B  B  B  C  C  B  C  C      </div>","32","html-keyboard-response","46","260053","0.0-2.0-0.22","test","",""
"3931.999999999971","","","survey-likert","47","264487","0.0-2.0-1.22","","{""Q0"":6}","[0]"
"9454","<div style=""font-size:45px;"">A  A  A  A  C  C  A  A  C  C  C  C                        </div>","32","html-keyboard-response","48","273942","0.0-2.0-0.23","test","",""
"3010","","","survey-likert","49","277454","0.0-2.0-1.23","","{""Q0"":2}","[0]"
"5589","<div style=""font-size:45px;"">B  B  B  A  B  B  C  A  A  A  A  A  C  B  B  B  B  A  A  A</div>","32","html-keyboard-response","50","283044","0.0-2.0-0.24","test","",""
"3513","","","survey-likert","51","287060","0.0-2.0-1.24","","{""Q0"":7}","[0]"
"1278","<div style=""font-size:45px;"">B  C  B  C  B  C  B  C                                    </div>","32","html-keyboard-response","52","288340","0.0-2.0-0.25","test","",""
"1604","","","survey-likert","53","290446","0.0-2.0-1.25","","{""Q0"":0}","[0]"
"5822","<div style=""font-size:45px;"">B  A  B  B  A  B  B  A                                    </div>","32","html-keyboard-response","54","296270","0.0-2.0-0.26","test","",""
"3643.999999999942","","","survey-likert","55","300416","0.0-2.0-1.26","","{""Q0"":1}","[0]"
"1301","<div style=""font-size:45px;"">B  C  A  A  A  A  A  A  A  A                              </div>","32","html-keyboard-response","56","301720","0.0-2.0-0.27","test","",""
"1835.0000000000582","","","survey-likert","57","304058","0.0-2.0-1.27","","{""Q0"":8}","[0]"
"2397.000000000058","<div style=""font-size:45px;"">C  A  A  C  A  A  A  B  A  C                              </div>","32","html-keyboard-response","58","306458","0.0-2.0-0.28","test","",""
"1466","","","survey-likert","59","308425","0.0-2.0-1.28","","{""Q0"":8}","[0]"
"13073","<div style=""font-size:45px;"">C  C  B  B  B  B  C  C  B  C  C  A                        </div>","32","html-keyboard-response","60","321500","0.0-2.0-0.29","test","",""
"1982","","","survey-likert","61","323985","0.0-2.0-1.29","","{""Q0"":8}","[0]"
"2671.999999999942","<div style=""font-size:45px;"">C  B  B  C  B  A  A  B  A  A  B  A  A  A  A  B            </div>","32","html-keyboard-response","62","326659","0.0-2.0-0.30","test","",""
"3065","","","survey-likert","63","330227","0.0-2.0-1.30","","{""Q0"":8}","[0]"
"2535","<div style=""font-size:45px;"">B  A  B  A  B  A  B  A  A  A                              </div>","32","html-keyboard-response","64","332764","0.0-2.0-0.31","test","",""
"1921","","","survey-likert","65","335188","0.0-2.0-1.31","","{""Q0"":7}","[0]"
"1210","<div style=""font-size:45px;"">A  A  A  A  B  A                                          </div>","32","html-keyboard-response","66","336400","0.0-2.0-0.32","test","",""
"3395.000000000058","","","survey-likert","67","340298","0.0-2.0-1.32","","{""Q0"":3}","[0]"
"1460","<div style=""font-size:45px;"">C  B  C  C  B  C  C  B  C  C  B  C  C  B  C  C  B  C      </div>","32","html-keyboard-response","68","341759","0.0-2.0-0.33","test","",""
"1503.9999999999418","","","survey-likert","69","343766","0.0-2.0-1.33","","{""Q0"":0}","[0]"
"3896","<div style=""font-size:45px;"">A  C  B  A  C  B  A  C  B  A  C  B  A  C  B  A            </div>","32","html-keyboard-response","70","347663","0.0-2.0-0.34","test","",""
"4059","","","survey-likert","71","352225","0.0-2.0-1.34","","{""Q0"":0}","[0]"
"3319","<div style=""font-size:45px;"">A  C  A  B  C  C  C  A  B  C                              </div>","32","html-keyboard-response","72","355547","0.0-2.0-0.35","test","",""
"1273","","","survey-likert","73","357323","0.0-2.0-1.35","","{""Q0"":8}","[0]"
"8537","<div style=""font-size:45px;"">A  B  A  A  B  A  A  B                                    </div>","32","html-keyboard-response","74","365862","0.0-2.0-0.36","test","",""
"2594","","","survey-likert","75","368958","0.0-2.0-1.36","","{""Q0"":1}","[0]"
"1392","<div style=""font-size:45px;"">B  B  B  B  B  B                                          </div>","32","html-keyboard-response","76","370352","0.0-2.0-0.37","test","",""
"1417","","","survey-likert","77","372272","0.0-2.0-1.37","","{""Q0"":0}","[0]"
"1865.9999999999418","<div style=""font-size:45px;"">B  C  C  B  B  B  A  C  B  C  A  C                        </div>","32","html-keyboard-response","78","374140","0.0-2.0-0.38","test","",""
"1448","","","survey-likert","79","376090","0.0-2.0-1.38","","{""Q0"":8}","[0]"
"6259","<div style=""font-size:45px;"">B  B  B  C  C  A  B  B  A  A  C  C                        </div>","32","html-keyboard-response","80","382352","0.0-2.0-0.39","test","",""
"1856","","","survey-likert","81","384710","0.0-2.0-1.39","","{""Q0"":8}","[0]"
"1121","<div style=""font-size:45px;"">B  B  B  B                                                </div>","32","html-keyboard-response","82","385833","0.0-2.0-0.40","test","",""
"1313","","","survey-likert","83","387649","0.0-2.0-1.40","","{""Q0"":0}","[0]"
"1322","<div style=""font-size:45px;"">A  B  B  B  B  B  B  B                                    </div>","32","html-keyboard-response","84","388973","0.0-2.0-0.41","test","",""
"2383","","","survey-likert","85","391858","0.0-2.0-1.41","","{""Q0"":7}","[0]"
"1645","<div style=""font-size:45px;"">C  A  C  A  B  B  C  A                                    </div>","32","html-keyboard-response","86","393505","0.0-2.0-0.42","test","",""
"1859.9999999999418","","","survey-likert","87","395868","0.0-2.0-1.42","","{""Q0"":8}","[0]"
"1660","<div style=""font-size:45px;"">A  C  C  C  C  B  A  A  A  A  A  A                        </div>","32","html-keyboard-response","88","397529","0.0-2.0-0.43","test","",""
"1373","","","survey-likert","89","399405","0.0-2.0-1.43","","{""Q0"":8}","[0]"
"5660","<div style=""font-size:45px;"">B  C  B  A  B  A  A  A  C  C  A  C  C  B                  </div>","32","html-keyboard-response","90","405067","0.0-2.0-0.44","test","",""
"1922","","","survey-likert","91","407490","0.0-2.0-1.44","","{""Q0"":8}","[0]"
"2840","<div style=""font-size:45px;"">A  C  C  A  B  A  A  B  B  A  A  A  C  B                  </div>","32","html-keyboard-response","92","410333","0.0-2.0-0.45","test","",""
"1450","","","survey-likert","93","412284","0.0-2.0-1.45","","{""Q0"":6}","[0]"
"1758","<div style=""font-size:45px;"">B  C  C  A  C  A  A  A                                    </div>","32","html-keyboard-response","94","414045","0.0-2.0-0.46","test","",""
"2323","","","survey-likert","95","416870","0.0-2.0-1.46","","{""Q0"":7}","[0]"
"1262","<div style=""font-size:45px;"">C  C  C  C  C  C  C  A                                    </div>","32","html-keyboard-response","96","418133","0.0-2.0-0.47","test","",""
"1700.0000000000582","","","survey-likert","97","420335","0.0-2.0-1.47","","{""Q0"":7}","[0]"
"993","<div style=""font-size:45px;"">B  C  B  B  B  B                                          </div>","32","html-keyboard-response","98","421332","0.0-2.0-0.48","test","",""
"1543","","","survey-likert","99","423378","0.0-2.0-1.48","","{""Q0"":7}","[0]"
"2400","<div style=""font-size:45px;"">B  A  B  A  B  A  B  A  B  A                              </div>","32","html-keyboard-response","100","425780","0.0-2.0-0.49","test","",""
"1236.9999999999418","","","survey-likert","101","427520","0.0-2.0-1.49","","{""Q0"":0}","[0]"
"1014","<div style=""font-size:45px;"">B  B  B  B  B  B  B  B  B  B  B  B  B  C  C  C  C  C      </div>","32","html-keyboard-response","102","428536","0.0-2.0-0.50","test","",""
"2020","","","survey-likert","103","431059","0.0-2.0-1.50","","{""Q0"":8}","[0]"
"2110","<div style=""font-size:45px;"">C  A  A  B  C  B  C  C  A  B  A  B  A  B  B  C  B  B      </div>","32","html-keyboard-response","104","433171","0.0-2.0-0.51","test","",""
"4004","","","survey-likert","105","437677","0.0-2.0-1.51","","{""Q0"":8}","[0]"
"4636","<div style=""font-size:45px;"">C  C  C  B  A  A  C  B  B  B  C  A  B  B  B  A  C  A      </div>","32","html-keyboard-response","106","442315","0.0-2.0-0.52","test","",""
"1332","","","survey-likert","107","444149","0.0-2.0-1.52","","{""Q0"":7}","[0]"
"24096.99999999994","<div style=""font-size:45px;"">B  B  B  B  B  A  B  C  A  A  B  B  C  B  C  C            </div>","32","html-keyboard-response","108","468249","0.0-2.0-0.53","test","",""
"1954","","","survey-likert","109","470706","0.0-2.0-1.53","","{""Q0"":8}","[0]"
"654","<div style=""font-size:45px;"">C  C  C  C  C  C                                          </div>","32","html-keyboard-response","110","471362","0.0-2.0-0.54","test","",""
"1700","","","survey-likert","111","473565","0.0-2.0-1.54","","{""Q0"":0}","[0]"
"3785","<div style=""font-size:45px;"">C  B  A  C  B  C  C  B  C  B  C  B  C  B  C  C  A  C  B  A</div>","32","html-keyboard-response","112","477353","0.0-2.0-0.55","test","",""
"1716","","","survey-likert","113","479572","0.0-2.0-1.55","","{""Q0"":7}","[0]"
"2435","<div style=""font-size:45px;"">B  B  B  A  C  C  B  B  C  A  B  C  B  C                  </div>","32","html-keyboard-response","114","482009","0.0-2.0-0.56","test","",""
"1587.9999999999418","","","survey-likert","115","484098","0.0-2.0-1.56","","{""Q0"":7}","[0]"
"877","<div style=""font-size:45px;"">B  A  A  C  C  C  C  C  C  C  C  B  C  B                  </div>","32","html-keyboard-response","116","484977","0.0-2.0-0.57","test","",""
"1191","","","survey-likert","117","486670","0.0-2.0-1.57","","{""Q0"":8}","[0]"
"4854.999999999942","<div style=""font-size:45px;"">C  B  B  B  A  B  B  B  A  B                              </div>","32","html-keyboard-response","118","491526","0.0-2.0-0.58","test","",""
"2019","","","survey-likert","119","494047","0.0-2.0-1.58","","{""Q0"":4}","[0]"
"1269","<div style=""font-size:45px;"">B  A  A  B  A  C  C  C  C  C  C  C  C  C                  </div>","32","html-keyboard-response","120","495318","0.0-2.0-0.59","test","",""
"1436.9999999999418","","","survey-likert","121","497258","0.0-2.0-1.59","","{""Q0"":8}","[0]"
"753","<div style=""font-size:45px;"">B  C  C  B  C  C                                          </div>","32","html-keyboard-response","122","498013","0.0-2.0-0.60","test","",""
"1248.9999999999418","","","survey-likert","123","499765","0.0-2.0-1.60","","{""Q0"":0}","[0]"
"780.0000000000582","<div style=""font-size:45px;"">C  B  C  B  C  B  C  B  C  B  C  B  C  B  C  B  C  B  C  B</div>","32","html-keyboard-response","124","500547","0.0-2.0-0.61","test","",""
"1806","","","survey-likert","125","502856","0.0-2.0-1.61","","{""Q0"":0}","[0]"
"526","<div style=""font-size:45px;"">B  A  B  A                                                </div>","32","html-keyboard-response","126","503384","0.0-2.0-0.62","test","",""
"1207","","","survey-likert","127","505093","0.0-2.0-1.62","","{""Q0"":1}","[0]"
"2057","<div style=""font-size:45px;"">C  C  C  C  A  A  B  B  B  B  B  B  B  B  B  B  B  B      </div>","32","html-keyboard-response","128","507152","0.0-2.0-0.63","test","",""
"2477.999999999942","","","survey-likert","129","510132","0.0-2.0-1.63","","{""Q0"":8}","[0]"
"1686","<div style=""font-size:45px;"">A  B  B  A  B  B  A  B                                    </div>","32","html-keyboard-response","130","511819","0.0-2.0-0.64","test","",""
"2857.999999999942","","","survey-likert","131","515179","0.0-2.0-1.64","","{""Q0"":1}","[0]"
"894","<div style=""font-size:45px;"">A  A  A  A  A  A  A  A  A  A  A  A  A  A  A  A  A  A  A  A</div>","32","html-keyboard-response","132","516075","0.0-2.0-0.65","test","",""
"1540.9999999999418","","","survey-likert","133","518118","0.0-2.0-1.65","","{""Q0"":0}","[0]"
"1534.9999999999418","<div style=""font-size:45px;"">A  C  C  C  B  C  B  B  A  B  A  B  A  C  A  C  A  C      </div>","32","html-keyboard-response","134","519654","0.0-2.0-0.66","test","",""
"1244.0000000000582","","","survey-likert","135","521401","0.0-2.0-1.66","","{""Q0"":7}","[0]"
"3567.000000000058","<div style=""font-size:45px;"">B  B  A  B  B  B  B  C  C  C  A  A  A  C  C  B  A  B  B  B</div>","32","html-keyboard-response","136","524970","0.0-2.0-0.67","test","",""
"1234","","","survey-likert","137","526707","0.0-2.0-1.67","","{""Q0"":5}","[0]"
"4353","<div style=""font-size:45px;"">B  A  B  C  B  B  C  C  A  C  C  A  A  C  A  C  B  C      </div>","32","html-keyboard-response","138","531063","0.0-2.0-0.68","test","",""
"2224","","","survey-likert","139","533789","0.0-2.0-1.68","","{""Q0"":7}","[0]"
"684","<div style=""font-size:45px;"">B  B  B  B  B  C                                          </div>","32","html-keyboard-response","140","534475","0.0-2.0-0.69","test","",""
"1672.0000000001164","","","survey-likert","141","536648","0.0-2.0-1.69","","{""Q0"":6}","[0]"
"808","<div style=""font-size:45px;"">A  A  B  B  C  B                                          </div>","32","html-keyboard-response","142","537458","0.0-2.0-0.70","test","",""
"1395","","","survey-likert","143","539355","0.0-2.0-1.70","","{""Q0"":7}","[0]"
"884","<div style=""font-size:45px;"">C  B  B  B  B  B  B  B  B  B  B  B                        </div>","32","html-keyboard-response","144","540241","0.0-2.0-0.71","test","",""
"1944","","","survey-likert","145","542687","0.0-2.0-1.71","","{""Q0"":7}","[0]"
"803","<div style=""font-size:45px;"">A  A  B  A  A  C  C  C  B  C  C  C  C  C                  </div>","32","html-keyboard-response","146","543491","0.0-2.0-0.72","test","",""
"1137","","","survey-likert","147","545130","0.0-2.0-1.72","","{""Q0"":7}","[0]"
"1735","<div style=""font-size:45px;"">A  B  B  A  C  B  C  C  C  C  B  B  A  C                  </div>","32","html-keyboard-response","148","546867","0.0-2.0-0.73","test","",""
"1420.9999999998836","","","survey-likert","149","548790","0.0-2.0-1.73","","{""Q0"":7}","[0]"
"1756.0000000001164","<div style=""font-size:45px;"">A  C  A  C  A  C  A  C  A  C                              </div>","32","html-keyboard-response","150","550547","0.0-2.0-0.74","test","",""
"2710","","","survey-likert","151","553760","0.0-2.0-1.74","","{""Q0"":1}","[0]"
"1852","<div style=""font-size:45px;"">A  B  C  A  B  C  B  C  B  A  C  C  B  A                  </div>","32","html-keyboard-response","152","555614","0.0-2.0-0.75","test","",""
"3337","","","survey-likert","153","559454","0.0-2.0-1.75","","{""Q0"":0}","[0]"
"613","<div style=""font-size:45px;"">C  B  B  B  A  A  A  A  A  A  A  A                        </div>","32","html-keyboard-response","154","560069","0.0-2.0-0.76","test","",""
"2380.9999999998836","","","survey-likert","155","562953","0.0-2.0-1.76","","{""Q0"":7}","[0]"
"1064.0000000001164","<div style=""font-size:45px;"">C  C  C  C  C  B  C  A  A  A  B  B  A  B  C  B  A  A  B  B</div>","32","html-keyboard-response","156","564019","0.0-2.0-0.77","test","",""
"1442","","","survey-likert","157","565964","0.0-2.0-1.77","","{""Q0"":7}","[0]"
"544.9999999998836","<div style=""font-size:45px;"">C  C  C  B                                                </div>","32","html-keyboard-response","158","566511","0.0-2.0-0.78","test","",""
"1413","","","survey-likert","159","568426","0.0-2.0-1.78","","{""Q0"":7}","[0]"
"1442","<div style=""font-size:45px;"">C  C  C  C  C  A  A  A  A  B                              </div>","32","html-keyboard-response","160","569869","0.0-2.0-0.79","test","",""
"1120.9999999998836","","","survey-likert","161","571491","0.0-2.0-1.79","","{""Q0"":7}","[0]"
"1113","<div style=""font-size:45px;"">C  C  C  B  C  C  C  C  C  C  C  C  C  C                  </div>","32","html-keyboard-response","162","572606","0.0-2.0-0.80","test","",""
"2057","","","survey-likert","163","575165","0.0-2.0-1.80","","{""Q0"":7}","[0]"
"1236","<div style=""font-size:45px;"">B  C  A  C  B  B  B  C  B  B  B  B  C  C                  </div>","32","html-keyboard-response","164","576403","0.0-2.0-0.81","test","",""
"1118","","","survey-likert","165","578024","0.0-2.0-1.81","","{""Q0"":7}","[0]"
"2186","<div style=""font-size:45px;"">B  C  A  A  A  A  B  A  A  A  B  B                        </div>","32","html-keyboard-response","166","580211","0.0-2.0-0.82","test","",""
"1559","","","survey-likert","167","582272","0.0-2.0-1.82","","{""Q0"":7}","[0]"
"500.9999999998836","<div style=""font-size:45px;"">B  B  B  A                                                </div>","32","html-keyboard-response","168","582775","0.0-2.0-0.83","test","",""
"1177","","","survey-likert","169","584453","0.0-2.0-1.83","","{""Q0"":7}","[0]"
"2006","<div style=""font-size:45px;"">A  C  A  C  A  C  A  C  A  C  A  C  A  C  A  C  A  C      </div>","32","html-keyboard-response","170","586462","0.0-2.0-0.84","test","",""
"1330.0000000001164","","","survey-likert","171","588293","0.0-2.0-1.84","","{""Q0"":0}","[0]"
"925","<div style=""font-size:45px;"">B  B  B  B  A  A  A  A  B  C  A  B  B  C  B  B            </div>","32","html-keyboard-response","172","589221","0.0-2.0-0.85","test","",""
"1494","","","survey-likert","173","591218","0.0-2.0-1.85","","{""Q0"":7}","[0]"
"443","<div style=""font-size:45px;"">B  B  B  B  C  B                                          </div>","32","html-keyboard-response","174","591663","0.0-2.0-0.86","test","",""
"1178","","","survey-likert","175","593343","0.0-2.0-1.86","","{""Q0"":7}","[0]"
"3909","<div style=""font-size:45px;"">A  C  B  A  C  A  B  C  B  C  C  B  C  B  C  A            </div>","32","html-keyboard-response","176","597254","0.0-2.0-0.87","test","",""
"1888","","","survey-likert","177","599644","0.0-2.0-1.87","","{""Q0"":6}","[0]"
"647","<div style=""font-size:45px;"">B  C  A  A  C  A  B  A                                    </div>","32","html-keyboard-response","178","600293","0.0-2.0-0.88","test","",""
"1802.0000000001164","","","survey-likert","179","602597","0.0-2.0-1.88","","{""Q0"":7}","[0]"
"1144","<div style=""font-size:45px;"">B  B  C  B  B  C  B  B  C  B  B  C  B  B  C  B            </div>","32","html-keyboard-response","180","603743","0.0-2.0-0.89","test","",""
"2131.0000000001164","","","survey-likert","181","606376","0.0-2.0-1.89","","{""Q0"":0}","[0]"
"769","<div style=""font-size:45px;"">A  B  B  A  B  A                                          </div>","32","html-keyboard-response","182","607147","0.0-2.0-0.90","test","",""
"2433","","","survey-likert","183","610082","0.0-2.0-1.90","","{""Q0"":2}","[0]"
"1303","<div style=""font-size:45px;"">B  C  C  C  B  C  A  A  B  B  C  A                        </div>","32","html-keyboard-response","184","611387","0.0-2.0-0.91","test","",""
"1653","","","survey-likert","185","613542","0.0-2.0-1.91","","{""Q0"":7}","[0]"
"543.9999999998836","<div style=""font-size:45px;"">B  A  B  C                                                </div>","32","html-keyboard-response","186","614088","0.0-2.0-0.92","test","",""
"1091","","","survey-likert","187","615682","0.0-2.0-1.92","","{""Q0"":7}","[0]"
"3883","<div style=""font-size:45px;"">C  B  C  A  C  A  B  C  B  C                              </div>","32","html-keyboard-response","188","619567","0.0-2.0-0.93","test","",""
"1624.0000000001164","","","survey-likert","189","621694","0.0-2.0-1.93","","{""Q0"":2}","[0]"
"2066","<div style=""font-size:45px;"">B  A  A  A  A  A  A  B  B  B  B  C                        </div>","32","html-keyboard-response","190","623762","0.0-2.0-0.94","test","",""
"7135","","","survey-likert","191","631399","0.0-2.0-1.94","","{""Q0"":8}","[0]"
"2057.9999999998836","<div style=""font-size:45px;"">A  B  C  A  C  A  B  A  B  C  C  C                        </div>","32","html-keyboard-response","192","633459","0.0-2.0-0.95","test","",""
"1629","","","survey-likert","193","635591","0.0-2.0-1.95","","{""Q0"":7}","[0]"
"601","<div style=""font-size:45px;"">B  C  B  B                                                </div>","32","html-keyboard-response","194","636194","0.0-2.0-0.96","test","",""
"1960","","","survey-likert","195","638657","0.0-2.0-1.96","","{""Q0"":7}","[0]"
"714","<div style=""font-size:45px;"">C  C  C  C  C  C  C  C  C  C  C  C  C  C  C  C            </div>","32","html-keyboard-response","196","639373","0.0-2.0-0.97","test","",""
"1307","","","survey-likert","197","641182","0.0-2.0-1.97","","{""Q0"":0}","[0]"
"1271","<div style=""font-size:45px;"">B  C  C  B  C  C  B  C  C  B  A  A  A  A  A  A  C  C  C  C</div>","32","html-keyboard-response","198","642457","0.0-2.0-0.98","test","",""
"1961","","","survey-likert","199","644919","0.0-2.0-1.98","","{""Q0"":2}","[0]"
"1908","<div style=""font-size:45px;"">A  C  B  B  C  B  A  A  A  A  A  B  C  C  C  A  B  A  A  B</div>","32","html-keyboard-response","200","646830","0.0-2.0-0.99","test","",""
"1583","","","survey-likert","201","648914","0.0-2.0-1.99","","{""Q0"":7}","[0]"
"680.9999999998836","<div style=""font-size:45px;"">C  C  C  C  C  C  C  C  C  C  C  C                        </div>","32","html-keyboard-response","202","649597","0.0-2.0-0.100","test","",""
"2190.9999999998836","","","survey-likert","203","652289","0.0-2.0-1.100","","{""Q0"":0}","[0]"
"460.9999999998836","<div style=""font-size:45px;"">C  B  B  A                                                </div>","32","html-keyboard-response","204","652752","0.0-2.0-0.101","test","",""
"1714","","","survey-likert","205","654967","0.0-2.0-1.101","","{""Q0"":3}","[0]"
"2234","<div style=""font-size:45px;"">C  A  B  A  B  A  B  A                                    </div>","32","html-keyboard-response","206","657204","0.0-2.0-0.102","test","",""
"2557","","","survey-likert","207","660262","0.0-2.0-1.102","","{""Q0"":2}","[0]"
"1785","<div style=""font-size:45px;"">C  C  C  A  C  B  A  C  C  A  A  B  B  C  A  B  C  C      </div>","32","html-keyboard-response","208","662049","0.0-2.0-0.103","test","",""
"1703.0000000001164","","","survey-likert","209","664253","0.0-2.0-1.103","","{""Q0"":7}","[0]"
"899","<div style=""font-size:45px;"">B  C  C  C                                                </div>","32","html-keyboard-response","210","665154","0.0-2.0-0.104","test","",""
"2710","","","survey-likert","211","668366","0.0-2.0-1.104","","{""Q0"":5}","[0]"
"2118.9999999998836","<div style=""font-size:45px;"">B  C  B  B  C  B  C  B  C  C  C  C  C  C                  </div>","32","html-keyboard-response","212","670487","0.0-2.0-0.105","test","",""
"1208","","","survey-likert","213","672197","0.0-2.0-1.105","","{""Q0"":7}","[0]"
"3934","<div style=""font-size:45px;"">C  B  C  A  C  A  B  C  B  A  B  A  C  B  C  A            </div>","32","html-keyboard-response","214","676132","0.0-2.0-0.106","test","",""
"1874","","","survey-likert","215","678509","0.0-2.0-1.106","","{""Q0"":1}","[0]"
"1397","<div style=""font-size:45px;"">C  B  B  C  B  B  B  B  B  B  B  B  B  B  B  C            </div>","32","html-keyboard-response","216","679907","0.0-2.0-0.107","test","",""
"1398","","","survey-likert","217","681807","0.0-2.0-1.107","","{""Q0"":7}","[0]"
"4582","<div style=""font-size:45px;"">B  A  C  B  C  B  A  B                                    </div>","32","html-keyboard-response","218","686391","0.0-2.0-0.108","test","",""
"1685.9999999998836","","","survey-likert","219","688579","0.0-2.0-1.108","","{""Q0"":3}","[0]"
"961","<div style=""font-size:45px;"">C  C  C  C  C  C  C  C  C  C  C  C  C  C                  </div>","32","html-keyboard-response","220","689542","0.0-2.0-0.109","test","",""
"2057","","","survey-likert","221","692101","0.0-2.0-1.109","","{""Q0"":0}","[0]"
"1167","<div style=""font-size:45px;"">C  B  C  B  A  C  B  B                                    </div>","32","html-keyboard-response","222","693270","0.0-2.0-0.110","test","",""
"1466.9999999998836","","","survey-likert","223","695240","0.0-2.0-1.110","","{""Q0"":5}","[0]"
"1144","<div style=""font-size:45px;"">A  B  C  A  A  B  C  C  C  C                              </div>","32","html-keyboard-response","224","696386","0.0-2.0-0.111","test","",""
"1818","","","survey-likert","225","698707","0.0-2.0-1.111","","{""Q0"":7}","[0]"
"2614","<div style=""font-size:45px;"">B  A  B  B  A  C  C  A  B  C  B  B  C  A  C  C  A  B  A  B</div>","32","html-keyboard-response","226","701323","0.0-2.0-0.112","test","",""
"1616","","","survey-likert","227","703440","0.0-2.0-1.112","","{""Q0"":7}","[0]"
"7664","<div style=""font-size:45px;""></div>","32","html-keyboard-response","228","711106","0.0-2.0-0.113","test","",""
"7186","","","survey-likert","229","718794","0.0-2.0-1.113","","{""Q0"":4}","[0]"
"5163","<div style=""font-size:45px;"">A  A  A  A  A  C  B  C  A  B                              </div>","32","html-keyboard-response","230","723960","0.0-2.0-0.114","test","",""
"1264","","","survey-likert","231","725725","0.0-2.0-1.114","","{""Q0"":7}","[0]"
"949","<div style=""font-size:45px;"">A  A  B  A  B  B  B  B  A  A  C  C  B  B  A  C  C  C  C  C</div>","32","html-keyboard-response","232","726675","0.0-2.0-0.115","test","",""
"1192","","","survey-likert","233","728369","0.0-2.0-1.115","","{""Q0"":6}","[0]"
"1256.9999999998836","<div style=""font-size:45px;"">A  A  A  B  C  C  C  C  C  A  C  C  B  A  C  B  C  C      </div>","32","html-keyboard-response","234","729627","0.0-2.0-0.116","test","",""
"3177","","","survey-likert","235","733306","0.0-2.0-1.116","","{""Q0"":6}","[0]"
"2552","<div style=""font-size:45px;"">A  C  B  A  B  C                                          </div>","32","html-keyboard-response","236","735860","0.0-2.0-0.117","test","",""
"1420","","","survey-likert","237","737782","0.0-2.0-1.117","","{""Q0"":4}","[0]"
"874","<div style=""font-size:45px;"">C  A  C  A  C  A  C  A  C  A  C  A  C  A  C  A  C  A  C  A</div>","32","html-keyboard-response","238","738659","0.0-2.0-0.118","test","",""
"1857","","","survey-likert","239","741017","0.0-2.0-1.118","","{""Q0"":0}","[0]"
"844.9999999998836","<div style=""font-size:45px;"">A  B  A  B  A  B                                          </div>","32","html-keyboard-response","240","741864","0.0-2.0-0.119","test","",""
"2077","","","survey-likert","241","744444","0.0-2.0-1.119","","{""Q0"":1}","[0]"
"1091","<div style=""font-size:45px;"">C  C  B  C  C  B  C  C  B  C  C  B  C  C  B  C            </div>","32","html-keyboard-response","242","745536","0.0-2.0-0.120","test","",""
"2998","","","survey-likert","243","749036","0.0-2.0-1.120","","{""Q0"":0}","[0]"
"825","<div style=""font-size:45px;"">A  C  A  A  A  B  C  B                                    </div>","32","html-keyboard-response","244","749864","0.0-2.0-0.121","test","",""
"1673","","","survey-likert","245","752040","0.0-2.0-1.121","","{""Q0"":7}","[0]"
"505","<div style=""font-size:45px;"">A  A  A  A                                                </div>","32","html-keyboard-response","246","752547","0.0-2.0-0.122","test","",""
"1266.9999999998836","","","survey-likert","247","754315","0.0-2.0-1.122","","{""Q0"":2}","[0]"
"3601","<div style=""font-size:45px;"">C  B  C  C  B  C  C  A  B  A                              </div>","32","html-keyboard-response","248","757919","0.0-2.0-0.123","test","",""
"1314","","","survey-likert","249","759735","0.0-2.0-1.123","","{""Q0"":6}","[0]"
"834","<div style=""font-size:45px;"">C  C  A  B  A  B  C  C  A  B  A  C  A  B  B  B            </div>","32","html-keyboard-response","250","760571","0.0-2.0-0.124","test","",""
"1176.9999999998836","","","survey-likert","251","762250","0.0-2.0-1.124","","{""Q0"":6}","[0]"
"723","<div style=""font-size:45px;"">A  B  A  A  A  B                                          </div>","32","html-keyboard-response","252","762975","0.0-2.0-0.125","test","",""
"1839.9999999998836","","","survey-likert","253","765317","0.0-2.0-1.125","","{""Q0"":7}","[0]"
"797.0000000001164","<div style=""font-size:45px;"">A  A  A  A  A  A  B  A  A  A  C  A                        </div>","32","html-keyboard-response","254","766116","0.0-2.0-0.126","test","",""
"1288","","","survey-likert","255","767906","0.0-2.0-1.126","","{""Q0"":8}","[0]"
