"rt","stimulus","button_pressed","trial_type","trial_index","time_elapsed","internal_node_id","key_press","test_part","next_elem","responses","question_order"
"4295.920000004116","<p>Hi! Thanks so much for participating in our experiment! </p><p>Press any key to continue</p>","0","html-button-response","0","4301","0.0-0.0","","","","",""
"1073.770000017248","<p>This session will last for 15min.</p><p> In each trial, you will see some symbols appearing one-by-one </p><p> and you will be asked to stop the sequence whenever you can answer some questions (more on this later). </p><p> Each sequence is independent from one another. </p><p> You will be paid extra based on the overall number of correct responses you give. </p><p> <br /> We will try this on some examples before we move on to the actual experiment: </p>","0","html-button-response","1","5377","0.0-1.0","","","","",""
"null","<div style=""font-size:65px;"">A</div>","","html-keyboard-response","2","7185","0.0-2.0-0.0-0.0","null","training","B","",""
"null","<div style=""font-size:65px;"">B</div>","","html-keyboard-response","3","8294","0.0-2.0-0.0-0.1","null","training","C","",""
"null","<div style=""font-size:65px;"">C</div>","","html-keyboard-response","4","9398","0.0-2.0-0.0-0.2","null","training","A","",""
"314.9599999887869","<div style=""font-size:65px;"">A</div>","","html-keyboard-response","5","10020","0.0-2.0-0.0-0.3","32","training","B","",""
"null","","","html-keyboard-response","6","10323","0.0-2.0-0.0-0.4","null","training","C","",""
"2893.849999993108","","","survey-likert","7","13219","0.0-2.0-1.0","","","","{""Q0"":9}","[0]"
"1551.0900000226684","","","survey-multi-choice","8","14772","0.0-2.0-2.0","","","","{""Q0"":""B""}","[0]"
"905.1450000260957","Correct! + $1","0","html-button-response","9","15679","0.0-2.0-3.0","","","","",""
"null","<div style=""font-size:65px;"">A</div>","","html-keyboard-response","10","16488","0.0-3.0-0.0-0.0","null","training","A","",""
"391.2550000241026","<div style=""font-size:65px;"">A</div>","","html-keyboard-response","11","17180","0.0-3.0-0.0-0.1","32","training","A","",""
"null","","","html-keyboard-response","12","17485","0.0-3.0-0.0-0.2","null","training","A","",""
"2314.8700000019744","","","survey-likert","13","19801","0.0-3.0-1.0","","","","{""Q0"":9}","[0]"
"1854.6999999671243","","","survey-multi-choice","14","21658","0.0-3.0-2.0","","","","{""Q0"":""A""}","[0]"
"972.6549999904819","Correct! + $1","0","html-button-response","15","22632","0.0-3.0-3.0","","","","",""
"947.0499999588355","<p> You are now ready to proceed with the actual experiment </p>","0","html-button-response","16","23581","0.0-4.0","","","","",""
"null","<div style=""font-size:65px;"">B</div>","","html-keyboard-response","17","24383","0.0-5.0-0.0-0.0","null","test","B","",""
"null","<div style=""font-size:65px;"">B</div>","","html-keyboard-response","18","25490","0.0-5.0-0.0-0.1","null","test","B","",""
"null","<div style=""font-size:65px;"">B</div>","","html-keyboard-response","19","26598","0.0-5.0-0.0-0.2","null","test","B","",""
"null","<div style=""font-size:65px;"">B</div>","","html-keyboard-response","20","27700","0.0-5.0-0.0-0.3","null","test","B","",""
"null","<div style=""font-size:65px;"">B</div>","","html-keyboard-response","21","28806","0.0-5.0-0.0-0.4","null","test","B","",""
"356.5299999900162","<div style=""font-size:65px;"">B</div>","","html-keyboard-response","22","29469","0.0-5.0-0.0-0.5","32","test","B","",""
"null","","","html-keyboard-response","23","29773","0.0-5.0-0.0-0.6","null","test","B","",""
"2549.9600000330247","","","survey-likert","24","32324","0.0-5.0-1.0","","","","{""Q0"":9}","[0]"
"3176.934999995865","","","survey-multi-choice","25","35503","0.0-5.0-2.0","","","","{""Q0"":""B""}","[0]"
"3445.689999964088","Correct! + $1","0","html-button-response","26","38951","0.0-5.0-3.0","","","","",""
"null","<div style=""font-size:65px;"">A</div>","","html-keyboard-response","27","39753","0.0-6.0-0.0-0.0","null","test","A","",""
"null","<div style=""font-size:65px;"">A</div>","","html-keyboard-response","28","40856","0.0-6.0-0.0-0.1","null","test","A","",""
"null","<div style=""font-size:65px;"">A</div>","","html-keyboard-response","29","41962","0.0-6.0-0.0-0.2","null","test","A","",""
"null","<div style=""font-size:65px;"">A</div>","","html-keyboard-response","30","43069","0.0-6.0-0.0-0.3","null","test","A","",""
"null","<div style=""font-size:65px;"">A</div>","","html-keyboard-response","31","44175","0.0-6.0-0.0-0.4","null","test","B","",""
"null","<div style=""font-size:65px;"">B</div>","","html-keyboard-response","32","45284","0.0-6.0-0.0-0.5","null","test","C","",""
"null","<div style=""font-size:65px;"">C</div>","","html-keyboard-response","33","46387","0.0-6.0-0.0-0.6","null","test","A","",""
"null","<div style=""font-size:65px;"">A</div>","","html-keyboard-response","34","47495","0.0-6.0-0.0-0.7","null","test","C","",""
"null","<div style=""font-size:65px;"">C</div>","","html-keyboard-response","35","48606","0.0-6.0-0.0-0.8","null","test","B","",""
"null","<div style=""font-size:65px;"">B</div>","","html-keyboard-response","36","49714","0.0-6.0-0.0-0.9","null","test","A","",""
"null","<div style=""font-size:65px;"">A</div>","","html-keyboard-response","37","50825","0.0-6.0-0.0-0.10","null","test","C","",""
"null","<div style=""font-size:65px;"">C</div>","","html-keyboard-response","38","51930","0.0-6.0-0.0-0.11","null","test","C","",""
"null","<div style=""font-size:65px;"">C</div>","","html-keyboard-response","39","53035","0.0-6.0-0.0-0.12","null","test","A","",""
"null","<div style=""font-size:65px;"">A</div>","","html-keyboard-response","40","54143","0.0-6.0-0.0-0.13","null","test","C","",""
"null","<div style=""font-size:65px;"">C</div>","","html-keyboard-response","41","55250","0.0-6.0-0.0-0.14","null","test","A","",""
"null","<div style=""font-size:65px;"">A</div>","","html-keyboard-response","42","56361","0.0-6.0-0.0-0.15","null","test","A","",""
"null","<div style=""font-size:65px;"">A</div>","","html-keyboard-response","43","57465","0.0-6.0-0.0-0.16","null","test","B","",""
"null","<div style=""font-size:65px;"">B</div>","","html-keyboard-response","44","58569","0.0-6.0-0.0-0.17","null","test","C","",""
"null","<div style=""font-size:65px;"">C</div>","","html-keyboard-response","45","59678","0.0-6.0-0.0-0.18","null","test","C","",""
"null","<div style=""font-size:65px;"">C</div>","","html-keyboard-response","46","60784","0.0-6.0-0.0-0.19","null","test","A","",""
"null","<div style=""font-size:65px;"">A</div>","","html-keyboard-response","47","61886","0.0-6.0-0.0-0.20","null","test","C","",""
"null","<div style=""font-size:65px;"">C</div>","","html-keyboard-response","48","62989","0.0-6.0-0.0-0.21","null","test","B","",""
"null","<div style=""font-size:65px;"">B</div>","","html-keyboard-response","49","64098","0.0-6.0-0.0-0.22","null","test","C","",""
"null","<div style=""font-size:65px;"">C</div>","","html-keyboard-response","50","65206","0.0-6.0-0.0-0.23","null","test","A","",""
"null","<div style=""font-size:65px;"">A</div>","","html-keyboard-response","51","66314","0.0-6.0-0.0-0.24","null","test","A","",""
"733.5949999978766","<div style=""font-size:65px;"">A</div>","","html-keyboard-response","52","67349","0.0-6.0-0.0-0.25","32","test","A","",""
"null","","","html-keyboard-response","53","67655","0.0-6.0-0.0-0.26","null","test","C","",""
"3413.025000016205","","","survey-likert","54","71070","0.0-6.0-1.0","","","","{""Q0"":2}","[0]"
"1713.9549999847077","","","survey-multi-choice","55","72786","0.0-6.0-2.0","","","","{""Q0"":""A""}","[0]"
"1482.9699999536388","Correct! + $1","0","html-button-response","56","74270","0.0-6.0-3.0","","","","",""
"null","<div style=""font-size:65px;"">A</div>","","html-keyboard-response","57","75072","0.0-7.0-0.0-0.0","null","test","A","",""
"null","<div style=""font-size:65px;"">A</div>","","html-keyboard-response","58","76178","0.0-7.0-0.0-0.1","null","test","C","",""
"null","<div style=""font-size:65px;"">C</div>","","html-keyboard-response","59","77289","0.0-7.0-0.0-0.2","null","test","A","",""
"null","<div style=""font-size:65px;"">A</div>","","html-keyboard-response","60","78394","0.0-7.0-0.0-0.3","null","test","C","",""
"null","<div style=""font-size:65px;"">C</div>","","html-keyboard-response","61","79502","0.0-7.0-0.0-0.4","null","test","B","",""
"null","<div style=""font-size:65px;"">B</div>","","html-keyboard-response","62","80605","0.0-7.0-0.0-0.5","null","test","A","",""
"null","<div style=""font-size:65px;"">A</div>","","html-keyboard-response","63","81713","0.0-7.0-0.0-0.6","null","test","C","",""
"null","<div style=""font-size:65px;"">C</div>","","html-keyboard-response","64","82821","0.0-7.0-0.0-0.7","null","test","C","",""
"null","<div style=""font-size:65px;"">C</div>","","html-keyboard-response","65","83925","0.0-7.0-0.0-0.8","null","test","C","",""
"null","<div style=""font-size:65px;"">C</div>","","html-keyboard-response","66","85033","0.0-7.0-0.0-0.9","null","test","C","",""
"null","<div style=""font-size:65px;"">C</div>","","html-keyboard-response","67","86134","0.0-7.0-0.0-0.10","null","test","A","",""
"null","<div style=""font-size:65px;"">A</div>","","html-keyboard-response","68","87240","0.0-7.0-0.0-0.11","null","test","A","",""
"null","<div style=""font-size:65px;"">A</div>","","html-keyboard-response","69","88352","0.0-7.0-0.0-0.12","null","test","C","",""
"null","<div style=""font-size:65px;"">C</div>","","html-keyboard-response","70","89462","0.0-7.0-0.0-0.13","null","test","A","",""
"null","<div style=""font-size:65px;"">A</div>","","html-keyboard-response","71","90572","0.0-7.0-0.0-0.14","null","test","B","",""
"null","<div style=""font-size:65px;"">B</div>","","html-keyboard-response","72","91678","0.0-7.0-0.0-0.15","null","test","C","",""
"null","<div style=""font-size:65px;"">C</div>","","html-keyboard-response","73","92787","0.0-7.0-0.0-0.16","null","test","B","",""
"654.5749999932013","<div style=""font-size:65px;"">B</div>","","html-keyboard-response","74","93748","0.0-7.0-0.0-0.17","32","test","A","",""
"null","","","html-keyboard-response","75","94051","0.0-7.0-0.0-0.18","null","test","C","",""
"2895.0199999962933","","","survey-likert","76","96948","0.0-7.0-1.0","","","","{""Q0"":2}","[0]"
"4221.105000004172","","","survey-multi-choice","77","101171","0.0-7.0-2.0","","","","{""Q0"":""A, B, and C, are all equally likely""}","[0]"
"33649.840000027325","Correct! + $1","0","html-button-response","78","134822","0.0-7.0-3.0","","","","",""
"null","<div style=""font-size:65px;"">A</div>","","html-keyboard-response","79","135625","0.0-8.0-0.0-0.0","null","test","A","",""
"null","<div style=""font-size:65px;"">A</div>","","html-keyboard-response","80","136733","0.0-8.0-0.0-0.1","null","test","A","",""
"null","<div style=""font-size:65px;"">A</div>","","html-keyboard-response","81","137835","0.0-8.0-0.0-0.2","null","test","A","",""
"null","<div style=""font-size:65px;"">A</div>","","html-keyboard-response","82","138942","0.0-8.0-0.0-0.3","null","test","C","",""
"null","<div style=""font-size:65px;"">C</div>","","html-keyboard-response","83","140044","0.0-8.0-0.0-0.4","null","test","A","",""
"null","<div style=""font-size:65px;"">A</div>","","html-keyboard-response","84","141150","0.0-8.0-0.0-0.5","null","test","C","",""
"null","<div style=""font-size:65px;"">C</div>","","html-keyboard-response","85","142255","0.0-8.0-0.0-0.6","null","test","A","",""
"null","<div style=""font-size:65px;"">A</div>","","html-keyboard-response","86","143365","0.0-8.0-0.0-0.7","null","test","C","",""
"297.2249999875203","<div style=""font-size:65px;"">C</div>","","html-keyboard-response","87","143964","0.0-8.0-0.0-0.8","32","test","A","",""
"null","","","html-keyboard-response","88","144269","0.0-8.0-0.0-0.9","null","test","C","",""
"4679.705000016838","","","survey-likert","89","148950","0.0-8.0-1.0","","","","{""Q0"":6}","[0]"
"3559.2600000090897","","","survey-multi-choice","90","152511","0.0-8.0-2.0","","","","{""Q0"":""A""}","[0]"
"1004.3200000072829","Correct! + $1","0","html-button-response","91","153517","0.0-8.0-3.0","","","","",""
"null","<div style=""font-size:65px;"">A</div>","","html-keyboard-response","92","154319","0.0-9.0-0.0-0.0","null","test","A","",""
"null","<div style=""font-size:65px;"">A</div>","","html-keyboard-response","93","155421","0.0-9.0-0.0-0.1","null","test","B","",""
"null","<div style=""font-size:65px;"">B</div>","","html-keyboard-response","94","156528","0.0-9.0-0.0-0.2","null","test","B","",""
"null","<div style=""font-size:65px;"">B</div>","","html-keyboard-response","95","157635","0.0-9.0-0.0-0.3","null","test","C","",""
"null","<div style=""font-size:65px;"">C</div>","","html-keyboard-response","96","158740","0.0-9.0-0.0-0.4","null","test","B","",""
"null","<div style=""font-size:65px;"">B</div>","","html-keyboard-response","97","159849","0.0-9.0-0.0-0.5","null","test","B","",""
"null","<div style=""font-size:65px;"">B</div>","","html-keyboard-response","98","160956","0.0-9.0-0.0-0.6","null","test","B","",""
"null","<div style=""font-size:65px;"">B</div>","","html-keyboard-response","99","162060","0.0-9.0-0.0-0.7","null","test","A","",""
"null","<div style=""font-size:65px;"">A</div>","","html-keyboard-response","100","163167","0.0-9.0-0.0-0.8","null","test","A","",""
"null","<div style=""font-size:65px;"">A</div>","","html-keyboard-response","101","164275","0.0-9.0-0.0-0.9","null","test","B","",""
"null","<div style=""font-size:65px;"">B</div>","","html-keyboard-response","102","165381","0.0-9.0-0.0-0.10","null","test","C","",""
"null","<div style=""font-size:65px;"">C</div>","","html-keyboard-response","103","166486","0.0-9.0-0.0-0.11","null","test","B","",""
"null","<div style=""font-size:65px;"">B</div>","","html-keyboard-response","104","167594","0.0-9.0-0.0-0.12","null","test","B","",""
"237.26500000339","<div style=""font-size:65px;"">B</div>","","html-keyboard-response","105","168132","0.0-9.0-0.0-0.13","32","test","B","",""
"null","","","html-keyboard-response","106","168438","0.0-9.0-0.0-0.14","null","test","A","",""
"3257.9750000149943","","","survey-likert","107","171697","0.0-9.0-1.0","","","","{""Q0"":1}","[0]"
"1812.8700000233948","","","survey-multi-choice","108","173512","0.0-9.0-2.0","","","","{""Q0"":""A, B, and C, are all equally likely""}","[0]"
"5624.859999981709","Incorrect! + $0<p> The correct choice was: B","0","html-button-response","109","179139","0.0-9.0-3.0","","","","",""
"null","<div style=""font-size:65px;"">A</div>","","html-keyboard-response","110","179944","0.0-10.0-0.0-0.0","null","test","C","",""
"null","<div style=""font-size:65px;"">C</div>","","html-keyboard-response","111","181051","0.0-10.0-0.0-0.1","null","test","B","",""
"null","<div style=""font-size:65px;"">B</div>","","html-keyboard-response","112","182155","0.0-10.0-0.0-0.2","null","test","A","",""
"null","<div style=""font-size:65px;"">A</div>","","html-keyboard-response","113","183261","0.0-10.0-0.0-0.3","null","test","C","",""
"null","<div style=""font-size:65px;"">C</div>","","html-keyboard-response","114","184369","0.0-10.0-0.0-0.4","null","test","B","",""
"null","<div style=""font-size:65px;"">B</div>","","html-keyboard-response","115","185474","0.0-10.0-0.0-0.5","null","test","A","",""
"310.76500000199303","<div style=""font-size:65px;"">A</div>","","html-keyboard-response","116","186086","0.0-10.0-0.0-0.6","32","test","C","",""
"null","","","html-keyboard-response","117","186393","0.0-10.0-0.0-0.7","null","test","B","",""
"2998.840000014752","","","survey-likert","118","189393","0.0-10.0-1.0","","","","{""Q0"":8}","[0]"
"1572.634999989532","","","survey-multi-choice","119","190967","0.0-10.0-2.0","","","","{""Q0"":""C""}","[0]"
"1087.3349999892525","Correct! + $1","0","html-button-response","120","192057","0.0-10.0-3.0","","","","",""
"null","<div style=""font-size:65px;"">C</div>","","html-keyboard-response","121","192861","0.0-11.0-0.0-0.0","null","test","C","",""
"null","<div style=""font-size:65px;"">C</div>","","html-keyboard-response","122","193968","0.0-11.0-0.0-0.1","null","test","C","",""
"null","<div style=""font-size:65px;"">C</div>","","html-keyboard-response","123","195075","0.0-11.0-0.0-0.2","null","test","C","",""
"null","<div style=""font-size:65px;"">C</div>","","html-keyboard-response","124","196182","0.0-11.0-0.0-0.3","null","test","C","",""
"348.8950000028126","<div style=""font-size:65px;"">C</div>","","html-keyboard-response","125","196835","0.0-11.0-0.0-0.4","32","test","C","",""
"null","","","html-keyboard-response","126","197138","0.0-11.0-0.0-0.5","null","test","C","",""
"2047.2350000054576","","","survey-likert","127","199187","0.0-11.0-1.0","","","","{""Q0"":9}","[0]"
"1639.1500000027008","","","survey-multi-choice","128","200828","0.0-11.0-2.0","","","","{""Q0"":""C""}","[0]"
"75792.85500000697","Correct! + $1","0","html-button-response","129","276624","0.0-11.0-3.0","","","","",""
"null","<div style=""font-size:65px;"">C</div>","","html-keyboard-response","130","277425","0.0-12.0-0.0-0.0","null","test","C","",""
"null","<div style=""font-size:65px;"">C</div>","","html-keyboard-response","131","278531","0.0-12.0-0.0-0.1","null","test","B","",""
"null","<div style=""font-size:65px;"">B</div>","","html-keyboard-response","132","279640","0.0-12.0-0.0-0.2","null","test","A","",""
"null","<div style=""font-size:65px;"">A</div>","","html-keyboard-response","133","280742","0.0-12.0-0.0-0.3","null","test","A","",""
"null","<div style=""font-size:65px;"">A</div>","","html-keyboard-response","134","281848","0.0-12.0-0.0-0.4","null","test","A","",""
"null","<div style=""font-size:65px;"">A</div>","","html-keyboard-response","135","282952","0.0-12.0-0.0-0.5","null","test","B","",""
"null","<div style=""font-size:65px;"">B</div>","","html-keyboard-response","136","284058","0.0-12.0-0.0-0.6","null","test","B","",""
"null","<div style=""font-size:65px;"">B</div>","","html-keyboard-response","137","285160","0.0-12.0-0.0-0.7","null","test","B","",""
"null","<div style=""font-size:65px;"">B</div>","","html-keyboard-response","138","286268","0.0-12.0-0.0-0.8","null","test","C","",""
"null","<div style=""font-size:65px;"">C</div>","","html-keyboard-response","139","287372","0.0-12.0-0.0-0.9","null","test","B","",""
"null","<div style=""font-size:65px;"">B</div>","","html-keyboard-response","140","288477","0.0-12.0-0.0-0.10","null","test","A","",""
"null","<div style=""font-size:65px;"">A</div>","","html-keyboard-response","141","289581","0.0-12.0-0.0-0.11","null","test","A","",""
"null","<div style=""font-size:65px;"">A</div>","","html-keyboard-response","142","290690","0.0-12.0-0.0-0.12","null","test","A","",""
"469.52499996405095","<div style=""font-size:65px;"">A</div>","","html-keyboard-response","143","291465","0.0-12.0-0.0-0.13","32","test","A","",""
"null","","","html-keyboard-response","144","291768","0.0-12.0-0.0-0.14","null","test","B","",""
"6205.424999992829","","","survey-likert","145","297975","0.0-12.0-1.0","","","","{""Q0"":1}","[0]"
"1763.455000007525","","","survey-multi-choice","146","299741","0.0-12.0-2.0","","","","{""Q0"":""A, B, and C, are all equally likely""}","[0]"
"2052.2299999720417","Correct! + $1","0","html-button-response","147","301795","0.0-12.0-3.0","","","","",""
"null","<div style=""font-size:65px;"">B</div>","","html-keyboard-response","148","302597","0.0-13.0-0.0-0.0","null","test","C","",""
"null","<div style=""font-size:65px;"">C</div>","","html-keyboard-response","149","303701","0.0-13.0-0.0-0.1","null","test","B","",""
"null","<div style=""font-size:65px;"">B</div>","","html-keyboard-response","150","304805","0.0-13.0-0.0-0.2","null","test","C","",""
"null","<div style=""font-size:65px;"">C</div>","","html-keyboard-response","151","305910","0.0-13.0-0.0-0.3","null","test","B","",""
"null","<div style=""font-size:65px;"">B</div>","","html-keyboard-response","152","307020","0.0-13.0-0.0-0.4","null","test","C","",""
"294.60500000277534","<div style=""font-size:65px;"">C</div>","","html-keyboard-response","153","307615","0.0-13.0-0.0-0.5","32","test","B","",""
"null","","","html-keyboard-response","154","307921","0.0-13.0-0.0-0.6","null","test","C","",""
"1999.3699999758974","","","survey-likert","155","309922","0.0-13.0-1.0","","","","{""Q0"":8}","[0]"
"1366.5400000172667","","","survey-multi-choice","156","311290","0.0-13.0-2.0","","","","{""Q0"":""B""}","[0]"
"922.4199999589473","Correct! + $1","0","html-button-response","157","312214","0.0-13.0-3.0","","","","",""
"null","<div style=""font-size:65px;"">B</div>","","html-keyboard-response","158","313015","0.0-14.0-0.0-0.0","null","test","C","",""
"null","<div style=""font-size:65px;"">C</div>","","html-keyboard-response","159","314119","0.0-14.0-0.0-0.1","null","test","B","",""
"null","<div style=""font-size:65px;"">B</div>","","html-keyboard-response","160","315221","0.0-14.0-0.0-0.2","null","test","C","",""
"null","<div style=""font-size:65px;"">C</div>","","html-keyboard-response","161","316323","0.0-14.0-0.0-0.3","null","test","B","",""
"null","<div style=""font-size:65px;"">B</div>","","html-keyboard-response","162","317428","0.0-14.0-0.0-0.4","null","test","C","",""
"null","<div style=""font-size:65px;"">C</div>","","html-keyboard-response","163","318536","0.0-14.0-0.0-0.5","null","test","B","",""
"null","<div style=""font-size:65px;"">B</div>","","html-keyboard-response","164","319638","0.0-14.0-0.0-0.6","null","test","C","",""
"283.47499994561076","<div style=""font-size:65px;"">C</div>","","html-keyboard-response","165","320227","0.0-14.0-0.0-0.7","32","test","C","",""
"null","","","html-keyboard-response","166","320532","0.0-14.0-0.0-0.8","null","test","C","",""
"2696.285000012722","","","survey-likert","167","323229","0.0-14.0-1.0","","","","{""Q0"":9}","[0]"
"4248.3050000155345","","","survey-multi-choice","168","327479","0.0-14.0-2.0","","","","{""Q0"":""B""}","[0]"
"7093.935000011697","Incorrect! + $0<p> The correct choice was: C","0","html-button-response","169","334574","0.0-14.0-3.0","","","","",""
"null","<div style=""font-size:65px;"">C</div>","","html-keyboard-response","170","335377","0.0-15.0-0.0-0.0","null","test","C","",""
"null","<div style=""font-size:65px;"">C</div>","","html-keyboard-response","171","336483","0.0-15.0-0.0-0.1","null","test","C","",""
"null","<div style=""font-size:65px;"">C</div>","","html-keyboard-response","172","337593","0.0-15.0-0.0-0.2","null","test","C","",""
"null","<div style=""font-size:65px;"">C</div>","","html-keyboard-response","173","338698","0.0-15.0-0.0-0.3","null","test","C","",""
"null","<div style=""font-size:65px;"">C</div>","","html-keyboard-response","174","339806","0.0-15.0-0.0-0.4","null","test","C","",""
"636.1250000190921","<div style=""font-size:65px;"">C</div>","","html-keyboard-response","175","340747","0.0-15.0-0.0-0.5","32","test","C","",""
"null","","","html-keyboard-response","176","341051","0.0-15.0-0.0-0.6","null","test","C","",""
"2697.2999999998137","","","survey-likert","177","343750","0.0-15.0-1.0","","","","{""Q0"":9}","[0]"
"1902.2450000047684","","","survey-multi-choice","178","345654","0.0-15.0-2.0","","","","{""Q0"":""C""}","[0]"
"1022.7799999993294","Correct! + $1","0","html-button-response","179","346679","0.0-15.0-3.0","","","","",""
"null","<div style=""font-size:65px;"">C</div>","","html-keyboard-response","180","347481","0.0-16.0-0.0-0.0","null","test","A","",""
"null","<div style=""font-size:65px;"">A</div>","","html-keyboard-response","181","348583","0.0-16.0-0.0-0.1","null","test","C","",""
"null","<div style=""font-size:65px;"">C</div>","","html-keyboard-response","182","349685","0.0-16.0-0.0-0.2","null","test","A","",""
"null","<div style=""font-size:65px;"">A</div>","","html-keyboard-response","183","350792","0.0-16.0-0.0-0.3","null","test","C","",""
"null","<div style=""font-size:65px;"">C</div>","","html-keyboard-response","184","351894","0.0-16.0-0.0-0.4","null","test","A","",""
"304.42000000039116","<div style=""font-size:65px;"">A</div>","","html-keyboard-response","185","352502","0.0-16.0-0.0-0.5","32","test","C","",""
"null","","","html-keyboard-response","186","352805","0.0-16.0-0.0-0.6","null","test","A","",""
"3079.9250000272878","","","survey-likert","187","355886","0.0-16.0-1.0","","","","{""Q0"":9}","[0]"
"1936.0449999803677","","","survey-multi-choice","188","357824","0.0-16.0-2.0","","","","{""Q0"":""C""}","[0]"
"1738.9499999699183","Correct! + $1","0","html-button-response","189","359564","0.0-16.0-3.0","","","","",""
"null","<div style=""font-size:65px;"">C</div>","","html-keyboard-response","190","360367","0.0-17.0-0.0-0.0","null","test","C","",""
"","","","html-keyboard-response","191","360668","0.0-17.0-0.0-0.1","","test","B","",""
