"rt","stimulus","key_press","trial_type","trial_index","time_elapsed","internal_node_id","test_part","responses","question_order"
"4750.000000000001","<p>Hi! Thanks so much for participating in our experiment! </p><p>Press any key to continue</p>","32","html-keyboard-response","0","4753","0.0-0.0","","",""
"2132","<p>This session will last for 10min.</p><p> In each trial, you will see a sequence consisting A's, B's and/or C's. </p> <p> After seeing the sequence, press any key, and you will be asked </p> <p> to judge how likely it is that the sequence came from a random process. </p><p> Each sequence is independent from one another. </p>","32","html-keyboard-response","1","6887","0.0-1.0","","",""
"1920","<div style=""font-size:45px;"">A  B  B  A  C  B  C  C  C  C  B  B  A  C                  </div>","32","html-keyboard-response","2","9809","0.0-2.0-0.0","test","",""
"3267","","","survey-likert","3","13580","0.0-2.0-1.0","","{""Q0"":8}","[0]"
"1710","<div style=""font-size:45px;"">B  A  B  A  B  A  B  A  A  A                              </div>","32","html-keyboard-response","4","15291","0.0-2.0-0.1","test","",""
"1350.0000000000036","","","survey-likert","5","17143","0.0-2.0-1.1","","{""Q0"":4}","[0]"
"468","<div style=""font-size:45px;"">C  C  C  C  C  C  C  C  C  C  C  C                        </div>","32","html-keyboard-response","6","17614","0.0-2.0-0.2","test","",""
"1402.0000000000036","","","survey-likert","7","19518","0.0-2.0-1.2","","{""Q0"":1}","[0]"
"465","<div style=""font-size:45px;"">C  C  C  C  C  A  A  A  A  B                              </div>","32","html-keyboard-response","8","19984","0.0-2.0-0.3","test","",""
"1224.9999999999964","","","survey-likert","9","21712","0.0-2.0-1.3","","{""Q0"":2}","[0]"
"340.00000000000364","<div style=""font-size:45px;"">B  B  B  A                                                </div>","32","html-keyboard-response","10","22053","0.0-2.0-0.4","test","",""
"1382","","","survey-likert","11","23937","0.0-2.0-1.4","","{""Q0"":5}","[0]"
"391","<div style=""font-size:45px;"">A  B  B  A  B  B  A  B                                    </div>","32","html-keyboard-response","12","24332","0.0-2.0-0.5","test","",""
"2141","","","survey-likert","13","26974","0.0-2.0-1.5","","{""Q0"":2}","[0]"
"620","<div style=""font-size:45px;"">B  C  B  B  B  B                                          </div>","32","html-keyboard-response","14","27596","0.0-2.0-0.6","test","",""
"1568","","","survey-likert","15","29667","0.0-2.0-1.6","","{""Q0"":2}","[0]"
"1106","<div style=""font-size:45px;"">C  B  C  C  B  C  C  A  B  A                              </div>","32","html-keyboard-response","16","30776","0.0-2.0-0.7","test","",""
"2122.9999999999964","","","survey-likert","17","33400","0.0-2.0-1.7","","{""Q0"":6}","[0]"
"1317","<div style=""font-size:45px;"">B  C  A  C  B  B  B  C  B  B  B  B  C  C                  </div>","32","html-keyboard-response","18","34719","0.0-2.0-0.8","test","",""
"1364","","","survey-likert","19","36585","0.0-2.0-1.8","","{""Q0"":3}","[0]"
"558","<div style=""font-size:45px;"">C  C  C  C  C  A  A  A  A  A  A  A  A  A                  </div>","32","html-keyboard-response","20","37147","0.0-2.0-0.9","test","",""
"1465","","","survey-likert","21","39114","0.0-2.0-1.9","","{""Q0"":1}","[0]"
"1371","<div style=""font-size:45px;"">C  C  C  B  A  A  C  B  B  B  C  A  B  B  B  A  C  A      </div>","32","html-keyboard-response","22","40487","0.0-2.0-0.10","test","",""
"1656","","","survey-likert","23","42643","0.0-2.0-1.10","","{""Q0"":8}","[0]"
"427.9999999999927","<div style=""font-size:45px;"">C  C  B  C                                                </div>","32","html-keyboard-response","24","43074","0.0-2.0-0.11","test","",""
"1654","","","survey-likert","25","45229","0.0-2.0-1.11","","{""Q0"":3}","[0]"
"502","<div style=""font-size:45px;"">B  B  B  B  C  B                                          </div>","32","html-keyboard-response","26","45734","0.0-2.0-0.12","test","",""
"1449","","","survey-likert","27","47685","0.0-2.0-1.12","","{""Q0"":3}","[0]"
"392.0000000000073","<div style=""font-size:45px;"">A  B  C  A  C  A  B  A  B  C  C  C                        </div>","32","html-keyboard-response","28","48079","0.0-2.0-0.13","test","",""
"2198","","","survey-likert","29","50779","0.0-2.0-1.13","","{""Q0"":7}","[0]"
"1548.0000000000073","<div style=""font-size:45px;"">A  B  A  A  B  A  A  A  A  A  A  A  A  A  A  C  C  C      </div>","32","html-keyboard-response","30","52329","0.0-2.0-0.14","test","",""
"2098","","","survey-likert","31","54929","0.0-2.0-1.14","","{""Q0"":2}","[0]"
"389","<div style=""font-size:45px;"">B  A  C  A                                                </div>","32","html-keyboard-response","32","55321","0.0-2.0-0.15","test","",""
"1413.9999999999927","","","survey-likert","33","57238","0.0-2.0-1.15","","{""Q0"":7}","[0]"
"516","<div style=""font-size:45px;"">B  C  A  A  A  A  A  A  A  A                              </div>","32","html-keyboard-response","34","57755","0.0-2.0-0.16","test","",""
"1519","","","survey-likert","35","59777","0.0-2.0-1.16","","{""Q0"":2}","[0]"
"528","<div style=""font-size:45px;"">C  B  C  B  A  C  B  B                                    </div>","32","html-keyboard-response","36","60308","0.0-2.0-0.17","test","",""
"1953","","","survey-likert","37","62763","0.0-2.0-1.17","","{""Q0"":6}","[0]"
"716.9999999999927","<div style=""font-size:45px;"">A  B  C  A  B  C  B  C  B  A  C  C  B  A                  </div>","32","html-keyboard-response","38","63483","0.0-2.0-0.18","test","",""
"1831","","","survey-likert","39","65817","0.0-2.0-1.18","","{""Q0"":7}","[0]"
"1027","<div style=""font-size:45px;"">A  C  A  A  A  B  C  B                                    </div>","32","html-keyboard-response","40","66847","0.0-2.0-0.19","test","",""
"1421.9999999999854","","","survey-likert","41","68771","0.0-2.0-1.19","","{""Q0"":4}","[0]"
"407","<div style=""font-size:45px;"">A  A  A  A                                                </div>","32","html-keyboard-response","42","69181","0.0-2.0-0.20","test","",""
"1887","","","survey-likert","43","71571","0.0-2.0-1.20","","{""Q0"":4}","[0]"
"1659","<div style=""font-size:45px;"">B  C  C  C  B  C  A  A  B  B  C  A                        </div>","32","html-keyboard-response","44","73232","0.0-2.0-0.21","test","",""
"2158","","","survey-likert","45","75893","0.0-2.0-1.21","","{""Q0"":6}","[0]"
"636","<div style=""font-size:45px;"">A  A  B  A  A  C  C  C  B  C  C  C  C  C                  </div>","32","html-keyboard-response","46","76531","0.0-2.0-0.22","test","",""
"2059","","","survey-likert","47","79094","0.0-2.0-1.22","","{""Q0"":2}","[0]"
"432","<div style=""font-size:45px;"">C  B  B  A                                                </div>","32","html-keyboard-response","48","79528","0.0-2.0-0.23","test","",""
"1724","","","survey-likert","49","81754","0.0-2.0-1.23","","{""Q0"":4}","[0]"
"470","<div style=""font-size:45px;"">B  B  B  B                                                </div>","32","html-keyboard-response","50","82226","0.0-2.0-0.24","test","",""
"2103.9999999999854","","","survey-likert","51","84833","0.0-2.0-1.24","","{""Q0"":4}","[0]"
"314","<div style=""font-size:45px;"">A  B  B  A  A  B  B  C                                    </div>","32","html-keyboard-response","52","85149","0.0-2.0-0.25","test","",""
"1710.0000000000146","","","survey-likert","53","87362","0.0-2.0-1.25","","{""Q0"":5}","[0]"
"373.00000000001455","<div style=""font-size:45px;"">B  C  C  C                                                </div>","32","html-keyboard-response","54","87737","0.0-2.0-0.26","test","",""
"2291","","","survey-likert","55","90530","0.0-2.0-1.26","","{""Q0"":4}","[0]"
"563","<div style=""font-size:45px;"">C  C  C  C  C  C  C  C  C  C  C  C  C  C  C  C            </div>","32","html-keyboard-response","56","91096","0.0-2.0-0.27","test","",""
"1461","","","survey-likert","57","93059","0.0-2.0-1.27","","{""Q0"":0}","[0]"
"1724","<div style=""font-size:45px;"">B  B  B  B  B  A  B  C  A  A  B  B  C  B  C  C            </div>","32","html-keyboard-response","58","94785","0.0-2.0-0.28","test","",""
"13935","","","survey-likert","59","109222","0.0-2.0-1.28","","{""Q0"":7}","[0]"
"827","<div style=""font-size:45px;"">B  A  A  B  A  C  C  C  C  C  C  C  C  C                  </div>","32","html-keyboard-response","60","110052","0.0-2.0-0.29","test","",""
"2173","","","survey-likert","61","112727","0.0-2.0-1.29","","{""Q0"":2}","[0]"
"2751.9999999999854","<div style=""font-size:45px;"">B  B  B  B  A  A  A  A  B  C  A  B  B  C  B  B            </div>","32","html-keyboard-response","62","115481","0.0-2.0-0.30","test","",""
"1425.0000000000146","","","survey-likert","63","117409","0.0-2.0-1.30","","{""Q0"":3}","[0]"
"398","<div style=""font-size:45px;"">A  A  B  A                                                </div>","32","html-keyboard-response","64","117808","0.0-2.0-0.31","test","",""
"1251","","","survey-likert","65","119562","0.0-2.0-1.31","","{""Q0"":5}","[0]"
"3305.0000000000146","<div style=""font-size:45px;"">A  C  C  C  C  B  B  B  B  B  B  B  B  C  C  C  C  C  B  B</div>","32","html-keyboard-response","66","122869","0.0-2.0-0.32","test","",""
"2011","","","survey-likert","67","125382","0.0-2.0-1.32","","{""Q0"":3}","[0]"
"2587.9999999999854","<div style=""font-size:45px;"">B  B  A  B  B  B  B  C  C  C  A  A  A  C  C  B  A  B  B  B</div>","32","html-keyboard-response","68","127973","0.0-2.0-0.33","test","",""
"3071.9999999999854","","","survey-likert","69","131547","0.0-2.0-1.33","","{""Q0"":1}","[0]"
"420.0000000000291","<div style=""font-size:45px;"">C  C  C  C  C  C                                          </div>","32","html-keyboard-response","70","131969","0.0-2.0-0.34","test","",""
"1254.000000000029","","","survey-likert","71","133725","0.0-2.0-1.34","","{""Q0"":3}","[0]"
"463","<div style=""font-size:45px;"">C  A  C  A  C  A  C  A  C  A  C  A  C  A  B  B  B  B      </div>","32","html-keyboard-response","72","134190","0.0-2.0-0.35","test","",""
"1832","","","survey-likert","73","136525","0.0-2.0-1.35","","{""Q0"":3}","[0]"
"1115","<div style=""font-size:45px;"">A  C  B  B  C  B  A  A  A  A  A  B  C  C  C  A  B  A  A  B</div>","32","html-keyboard-response","74","137642","0.0-2.0-0.36","test","",""
"1304","","","survey-likert","75","139448","0.0-2.0-1.36","","{""Q0"":7}","[0]"
"702","<div style=""font-size:45px;"">A  C  B  A  C  B  A  C  B  A  C  B  A  C  B  A            </div>","32","html-keyboard-response","76","140152","0.0-2.0-0.37","test","",""
"1731","","","survey-likert","77","142386","0.0-2.0-1.37","","{""Q0"":0}","[0]"
"408.0000000000291","<div style=""font-size:45px;"">B  A  B  A                                                </div>","32","html-keyboard-response","78","142797","0.0-2.0-0.38","test","",""
"1765","","","survey-likert","79","145064","0.0-2.0-1.38","","{""Q0"":4}","[0]"
"993.0000000000291","<div style=""font-size:45px;"">C  B  B  C  B  B  B  B  B  B  B  B  B  B  B  C            </div>","32","html-keyboard-response","80","146059","0.0-2.0-0.39","test","",""
"1547","","","survey-likert","81","148109","0.0-2.0-1.39","","{""Q0"":1}","[0]"
"1983","<div style=""font-size:45px;"">B  C  C  B  C  C  B  C  C  B  C  C                        </div>","32","html-keyboard-response","82","150094","0.0-2.0-0.40","test","",""
"1999.000000000029","","","survey-likert","83","152595","0.0-2.0-1.40","","{""Q0"":2}","[0]"
"1269","<div style=""font-size:45px;"">B  A  C  B  C  B  A  B                                    </div>","32","html-keyboard-response","84","153866","0.0-2.0-0.41","test","",""
"1936","","","survey-likert","85","156305","0.0-2.0-1.41","","{""Q0"":7}","[0]"
"815","<div style=""font-size:45px;"">A  A  A  B  C  C  C  C  C  A  C  C  B  A  C  B  C  C      </div>","32","html-keyboard-response","86","157122","0.0-2.0-0.42","test","",""
"2012","","","survey-likert","87","159636","0.0-2.0-1.42","","{""Q0"":2}","[0]"
"2316","<div style=""font-size:45px;"">B  C  B  B  C  B  C  B  C  C  C  C  C  C                  </div>","32","html-keyboard-response","88","161954","0.0-2.0-0.43","test","",""
"1527","","","survey-likert","89","163984","0.0-2.0-1.43","","{""Q0"":4}","[0]"
"2259.000000000029","<div style=""font-size:45px;"">C  C  A  B  A  A  A  A  C  B  B  B  B  B  B  B  B  A      </div>","32","html-keyboard-response","90","166245","0.0-2.0-0.44","test","",""
"2141","","","survey-likert","91","168887","0.0-2.0-1.44","","{""Q0"":6}","[0]"
"1220","<div style=""font-size:45px;"">C  C  C  C  C  B  C  A  A  A  B  B  A  B  C  B  A  A  B  B</div>","32","html-keyboard-response","92","170110","0.0-2.0-0.45","test","",""
"3436.000000000029","","","survey-likert","93","174047","0.0-2.0-1.45","","{""Q0"":2}","[0]"
"429","<div style=""font-size:45px;"">A  C  B  A  B  C                                          </div>","32","html-keyboard-response","94","174477","0.0-2.0-0.46","test","",""
"1367","","","survey-likert","95","176347","0.0-2.0-1.46","","{""Q0"":4}","[0]"
"662","<div style=""font-size:45px;"">A  B  A  B  A  B                                          </div>","32","html-keyboard-response","96","177010","0.0-2.0-0.47","test","",""
"5057","","","survey-likert","97","182570","0.0-2.0-1.47","","{""Q0"":3}","[0]"
"2357","<div style=""font-size:45px;"">C  B  C  C  B  C  C  B  C  C  B  C  C  B  C  C  B  C      </div>","32","html-keyboard-response","98","184929","0.0-2.0-0.48","test","",""
"1978","","","survey-likert","99","187408","0.0-2.0-1.48","","{""Q0"":0}","[0]"
"1544","<div style=""font-size:45px;"">C  B  C  A  C  A  B  C  B  C                              </div>","32","html-keyboard-response","100","188954","0.0-2.0-0.49","test","",""
"2113","","","survey-likert","101","191570","0.0-2.0-1.49","","{""Q0"":8}","[0]"
"440","<div style=""font-size:45px;"">A  B  B  A  B  A                                          </div>","32","html-keyboard-response","102","192016","0.0-2.0-0.50","test","",""
"1342","","","survey-likert","103","193860","0.0-2.0-1.50","","{""Q0"":3}","[0]"
"979","<div style=""font-size:45px;"">C  A  C  A  C  A  C  A  C  A  C  A  C  A  C  A  C  A  C  A</div>","32","html-keyboard-response","104","194841","0.0-2.0-0.51","test","",""
"1799","","","survey-likert","105","197142","0.0-2.0-1.51","","{""Q0"":0}","[0]"
"1505","<div style=""font-size:45px;"">C  B  A  C  B  C  C  B  C  B  C  B  C  B  C  C  A  C  B  A</div>","32","html-keyboard-response","106","198650","0.0-2.0-0.52","test","",""
"2674","","","survey-likert","107","201826","0.0-2.0-1.52","","{""Q0"":4}","[0]"
"1538","<div style=""font-size:45px;"">B  C  A  A  C  A  B  A                                    </div>","32","html-keyboard-response","108","203366","0.0-2.0-0.53","test","",""
"2247","","","survey-likert","109","206116","0.0-2.0-1.53","","{""Q0"":5}","[0]"
"818.0000000000291","<div style=""font-size:45px;"">A  C  C  C  C  B  A  A  A  A  A  A                        </div>","32","html-keyboard-response","110","206936","0.0-2.0-0.54","test","",""
"1306","","","survey-likert","111","208744","0.0-2.0-1.54","","{""Q0"":3}","[0]"
"1314.000000000029","<div style=""font-size:45px;"">A  C  A  B  C  C  C  A  B  C                              </div>","32","html-keyboard-response","112","210060","0.0-2.0-0.55","test","",""
"1137","","","survey-likert","113","211700","0.0-2.0-1.55","","{""Q0"":4}","[0]"
"1657.000000000029","<div style=""font-size:45px;"">C  A  C  C  A  B  B  B  B  B                              </div>","32","html-keyboard-response","114","213359","0.0-2.0-0.56","test","",""
"1801","","","survey-likert","115","215662","0.0-2.0-1.56","","{""Q0"":5}","[0]"
"1137","<div style=""font-size:45px;"">C  C  A  B  A  B  C  C  A  B  A  C  A  B  B  B            </div>","32","html-keyboard-response","116","216801","0.0-2.0-0.57","test","",""
"1676","","","survey-likert","117","218979","0.0-2.0-1.57","","{""Q0"":7}","[0]"
"1772","<div style=""font-size:45px;"">B  A  B  B  A  C  C  A  B  C  B  B  C  A  C  C  A  B  A  B</div>","32","html-keyboard-response","118","220753","0.0-2.0-0.58","test","",""
"1981","","","survey-likert","119","223236","0.0-2.0-1.58","","{""Q0"":9}","[0]"
"757","<div style=""font-size:45px;"">A  B  B  B  B  B  B  B                                    </div>","32","html-keyboard-response","120","223995","0.0-2.0-0.59","test","",""
"2316.999999999971","","","survey-likert","121","226813","0.0-2.0-1.59","","{""Q0"":1}","[0]"
"1473","<div style=""font-size:45px;"">A  B  C  A  A  B  C  C  C  C                              </div>","32","html-keyboard-response","122","228288","0.0-2.0-0.60","test","",""
"2190","","","survey-likert","123","230981","0.0-2.0-1.60","","{""Q0"":3}","[0]"
"1628","<div style=""font-size:45px;"">C  A  A  C  A  A  A  B  A  C                              </div>","32","html-keyboard-response","124","232611","0.0-2.0-0.61","test","",""
"955.0000000000291","","","survey-likert","125","234068","0.0-2.0-1.61","","{""Q0"":4}","[0]"
"556","<div style=""font-size:45px;"">B  B  B  C  C  A  B  B  A  A  C  C                        </div>","32","html-keyboard-response","126","234626","0.0-2.0-0.62","test","",""
"2123.999999999971","","","survey-likert","127","237252","0.0-2.0-1.62","","{""Q0"":6}","[0]"
"962","<div style=""font-size:45px;"">C  B  B  B  A  A  A  A  A  A  A  A                        </div>","32","html-keyboard-response","128","238216","0.0-2.0-0.63","test","",""
"1850.000000000029","","","survey-likert","129","240568","0.0-2.0-1.63","","{""Q0"":2}","[0]"
"2304","<div style=""font-size:45px;"">C  C  B  B  B  B  C  C  B  C  C  A                        </div>","32","html-keyboard-response","130","242874","0.0-2.0-0.64","test","",""
"1713","","","survey-likert","131","245088","0.0-2.0-1.64","","{""Q0"":4}","[0]"
"694","<div style=""font-size:45px;"">C  C  C  B  C  C  C  C  C  C  C  C  C  C                  </div>","32","html-keyboard-response","132","245784","0.0-2.0-0.65","test","",""
"1265","","","survey-likert","133","247552","0.0-2.0-1.65","","{""Q0"":1}","[0]"
"4112","<div style=""font-size:45px;"">C  C  C  A  C  B  A  C  C  A  A  B  B  C  A  B  C  C      </div>","32","html-keyboard-response","134","251666","0.0-2.0-0.66","test","",""
"3818.000000000029","","","survey-likert","135","255986","0.0-2.0-1.66","","{""Q0"":9}","[0]"
"1345.9999999999418","<div style=""font-size:45px;"">A  A  A  A  B  B  B  B  B  B  B  C  C  C  A  A  A  A  A  A</div>","32","html-keyboard-response","136","257335","0.0-2.0-0.67","test","",""
"2937","","","survey-likert","137","260774","0.0-2.0-1.67","","{""Q0"":1}","[0]"
"589","<div style=""font-size:45px;"">C  C  C  C  C  C  C  C  C  C  C  C  C  C                  </div>","32","html-keyboard-response","138","261364","0.0-2.0-0.68","test","",""
"1347","","","survey-likert","139","263213","0.0-2.0-1.68","","{""Q0"":0}","[0]"
"463","<div style=""font-size:45px;"">A  C  A  B                                                </div>","32","html-keyboard-response","140","263679","0.0-2.0-0.69","test","",""
"2176","","","survey-likert","141","266357","0.0-2.0-1.69","","{""Q0"":5}","[0]"
"1350","<div style=""font-size:45px;"">C  A  A  B  C  A  A  A  C  B  B  B  A  B  C  A            </div>","32","html-keyboard-response","142","267709","0.0-2.0-0.70","test","",""
"1168","","","survey-likert","143","269379","0.0-2.0-1.70","","{""Q0"":7}","[0]"
"451","<div style=""font-size:45px;"">A  A  A  A  B  A                                          </div>","32","html-keyboard-response","144","269832","0.0-2.0-0.71","test","",""
"1902","","","survey-likert","145","272236","0.0-2.0-1.71","","{""Q0"":2}","[0]"
"594","<div style=""font-size:45px;"">C  A  B  A  B  A  B  A                                    </div>","32","html-keyboard-response","146","272832","0.0-2.0-0.72","test","",""
"1096","","","survey-likert","147","274430","0.0-2.0-1.72","","{""Q0"":3}","[0]"
"361","<div style=""font-size:45px;"">B  A  B  C                                                </div>","32","html-keyboard-response","148","274792","0.0-2.0-0.73","test","",""
"2239","","","survey-likert","149","277533","0.0-2.0-1.73","","{""Q0"":4}","[0]"
"1748","<div style=""font-size:45px;"">A  C  C  C  B  C  B  B  A  B  A  B  A  C  A  C  A  C      </div>","32","html-keyboard-response","150","279283","0.0-2.0-0.74","test","",""
"1161","","","survey-likert","151","280947","0.0-2.0-1.74","","{""Q0"":7}","[0]"
"773","<div style=""font-size:45px;"">A  C  C  A  B  A  A  B  B  A  A  A  C  B                  </div>","32","html-keyboard-response","152","281722","0.0-2.0-0.75","test","",""
"1515.0000000000582","","","survey-likert","153","283739","0.0-2.0-1.75","","{""Q0"":7}","[0]"
"701","<div style=""font-size:45px;"">A  B  A  A  B  A  A  B                                    </div>","32","html-keyboard-response","154","284442","0.0-2.0-0.76","test","",""
"1447","","","survey-likert","155","286392","0.0-2.0-1.76","","{""Q0"":3}","[0]"
"665","<div style=""font-size:45px;"">A  A  A  A  A  C  B  C  A  B                              </div>","32","html-keyboard-response","156","287058","0.0-2.0-0.77","test","",""
"1713","","","survey-likert","157","289273","0.0-2.0-1.77","","{""Q0"":3}","[0]"
"663.9999999999418","<div style=""font-size:45px;"">A  C  A  C  A  C  A  C  A  C  A  C  A  C  A  C  A  C      </div>","32","html-keyboard-response","158","289939","0.0-2.0-0.78","test","",""
"2212.999999999942","","","survey-likert","159","292654","0.0-2.0-1.78","","{""Q0"":0}","[0]"
"618","<div style=""font-size:45px;"">C  B  B  B  B  B  B  B  B  B  B  B                        </div>","32","html-keyboard-response","160","293275","0.0-2.0-0.79","test","",""
"1988","","","survey-likert","161","295765","0.0-2.0-1.79","","{""Q0"":0}","[0]"
"461","<div style=""font-size:45px;"">B  B  B  B  B  B                                          </div>","32","html-keyboard-response","162","296228","0.0-2.0-0.80","test","",""
"1884.0000000000582","","","survey-likert","163","298614","0.0-2.0-1.80","","{""Q0"":2}","[0]"
"645","<div style=""font-size:45px;"">B  B  B  B  B  C                                          </div>","32","html-keyboard-response","164","299262","0.0-2.0-0.81","test","",""
"1626","","","survey-likert","165","301390","0.0-2.0-1.81","","{""Q0"":3}","[0]"
"437","<div style=""font-size:45px;"">B  C  C  A  C  A  A  A                                    </div>","32","html-keyboard-response","166","301830","0.0-2.0-0.82","test","",""
"1268","","","survey-likert","167","303601","0.0-2.0-1.82","","{""Q0"":3}","[0]"
"443","<div style=""font-size:45px;"">B  A  B  B  A  B  B  A                                    </div>","32","html-keyboard-response","168","304047","0.0-2.0-0.83","test","",""
"1173","","","survey-likert","169","305722","0.0-2.0-1.83","","{""Q0"":3}","[0]"
"827","<div style=""font-size:45px;"">A  A  B  B  C  C  C  C  A  B  B  B  B  C  C  B  C  C      </div>","32","html-keyboard-response","170","306551","0.0-2.0-0.84","test","",""
"1698","","","survey-likert","171","308751","0.0-2.0-1.84","","{""Q0"":3}","[0]"
"987.0000000000582","<div style=""font-size:45px;"">A  B  C  B  C  A  C  C  C  B  A  A  B  A  C  C            </div>","32","html-keyboard-response","172","309740","0.0-2.0-0.85","test","",""
"2198.000000000058","","","survey-likert","173","312442","0.0-2.0-1.85","","{""Q0"":7}","[0]"
"29289","<div style=""font-size:45px;"">C  B  B  B  A  B  B  B  A  B                              </div>","32","html-keyboard-response","174","341733","0.0-2.0-0.86","test","",""
"3178.000000000058","","","survey-likert","175","345414","0.0-2.0-1.86","","{""Q0"":3}","[0]"
"716","<div style=""font-size:45px;"">C  C  B  C  C  B  C  C  B  C  C  B  C  C  B  C            </div>","32","html-keyboard-response","176","346132","0.0-2.0-0.87","test","",""
"1612","","","survey-likert","177","348246","0.0-2.0-1.87","","{""Q0"":2}","[0]"
"2986","<div style=""font-size:45px;"">C  A  A  B  C  B  C  C  A  B  A  B  A  B  B  C  B  B      </div>","32","html-keyboard-response","178","351234","0.0-2.0-0.88","test","",""
"1406","","","survey-likert","179","353143","0.0-2.0-1.88","","{""Q0"":8}","[0]"
"529","<div style=""font-size:45px;"">B  C  A  A  A  B                                          </div>","32","html-keyboard-response","180","353674","0.0-2.0-0.89","test","",""
"2018","","","survey-likert","181","356196","0.0-2.0-1.89","","{""Q0"":5}","[0]"
"1144","<div style=""font-size:45px;"">C  C  C  C  A  A  B  B  B  B  B  B  B  B  B  B  B  B      </div>","32","html-keyboard-response","182","357341","0.0-2.0-0.90","test","",""
"1332","","","survey-likert","183","359176","0.0-2.0-1.90","","{""Q0"":3}","[0]"
"2023.0000000000582","<div style=""font-size:45px;"">B  B  B  A  B  B  C  A  A  A  A  A  C  B  B  B  B  A  A  A</div>","32","html-keyboard-response","184","361201","0.0-2.0-0.91","test","",""
"1444","","","survey-likert","185","363147","0.0-2.0-1.91","","{""Q0"":7}","[0]"
"582","<div style=""font-size:45px;"">A  A  A  A  C  C  A  A  C  C  C  C                        </div>","32","html-keyboard-response","186","363730","0.0-2.0-0.92","test","",""
"3000","","","survey-likert","187","367232","0.0-2.0-1.92","","{""Q0"":3}","[0]"
"647","<div style=""font-size:45px;"">C  B  C  B  C  B  C  B  C  B  C  B  C  B  C  B  C  B  C  B</div>","32","html-keyboard-response","188","367881","0.0-2.0-0.93","test","",""
"1296","","","survey-likert","189","369680","0.0-2.0-1.93","","{""Q0"":0}","[0]"
"560.0000000000582","<div style=""font-size:45px;"">A  A  A  A  A  A  A  A  A  A  A  A  A  A  A  A  A  A  A  A</div>","32","html-keyboard-response","190","370241","0.0-2.0-0.94","test","",""
"1335","","","survey-likert","191","372078","0.0-2.0-1.94","","{""Q0"":0}","[0]"
"10029.999999999942","<div style=""font-size:45px;"">C  A  C  C  A  C  C  A  C  C                              </div>","32","html-keyboard-response","192","382111","0.0-2.0-0.95","test","",""
"1903.0000000000582","","","survey-likert","193","384516","0.0-2.0-1.95","","{""Q0"":3}","[0]"
"2007","<div style=""font-size:45px;""></div>","32","html-keyboard-response","194","386524","0.0-2.0-0.96","test","",""
"1823","","","survey-likert","195","388849","0.0-2.0-1.96","","{""Q0"":4}","[0]"
"444","<div style=""font-size:45px;"">A  C  A  A  A  A                                          </div>","32","html-keyboard-response","196","389295","0.0-2.0-0.97","test","",""
"3751","","","survey-likert","197","393548","0.0-2.0-1.97","","{""Q0"":3}","[0]"
"935","<div style=""font-size:45px;"">A  A  B  A  A  B  A  A  B  A  A  B  A  A                  </div>","32","html-keyboard-response","198","394487","0.0-2.0-0.98","test","",""
"1147","","","survey-likert","199","396136","0.0-2.0-1.98","","{""Q0"":3}","[0]"
"410","<div style=""font-size:45px;"">C  C  C  C  C  C  C  A                                    </div>","32","html-keyboard-response","200","396548","0.0-2.0-0.99","test","",""
"1812","","","survey-likert","201","398861","0.0-2.0-1.99","","{""Q0"":1}","[0]"
"1020","<div style=""font-size:45px;"">B  A  B  C  B  B  C  C  A  C  C  A  A  C  A  C  B  C      </div>","32","html-keyboard-response","202","399884","0.0-2.0-0.100","test","",""
"1514","","","survey-likert","203","401899","0.0-2.0-1.100","","{""Q0"":8}","[0]"
"675.0000000000582","<div style=""font-size:45px;"">B  C  B  A  B  A  A  A  C  C  A  C  C  B                  </div>","32","html-keyboard-response","204","402577","0.0-2.0-0.101","test","",""
"1792","","","survey-likert","205","404871","0.0-2.0-1.101","","{""Q0"":8}","[0]"
"446.0000000000582","<div style=""font-size:45px;"">A  A  A  A  A  A  B  A  A  A  C  A                        </div>","32","html-keyboard-response","206","405320","0.0-2.0-0.102","test","",""
"1833","","","survey-likert","207","407654","0.0-2.0-1.102","","{""Q0"":2}","[0]"
"385","<div style=""font-size:45px;"">B  C  C  B  C  C                                          </div>","32","html-keyboard-response","208","408042","0.0-2.0-0.103","test","",""
"2303","","","survey-likert","209","410847","0.0-2.0-1.103","","{""Q0"":2}","[0]"
"377.0000000000582","<div style=""font-size:45px;"">B  C  B  C                                                </div>","32","html-keyboard-response","210","411226","0.0-2.0-0.104","test","",""
"1674","","","survey-likert","211","413402","0.0-2.0-1.104","","{""Q0"":3}","[0]"
"502.9999999999418","<div style=""font-size:45px;"">B  A  B  A  B  A  B  A  B  A                              </div>","32","html-keyboard-response","212","413907","0.0-2.0-0.105","test","",""
"1375","","","survey-likert","213","415784","0.0-2.0-1.105","","{""Q0"":1}","[0]"
"422","<div style=""font-size:45px;"">A  B  A  A  A  B                                          </div>","32","html-keyboard-response","214","416208","0.0-2.0-0.106","test","",""
"1334","","","survey-likert","215","418045","0.0-2.0-1.106","","{""Q0"":2}","[0]"
"602","<div style=""font-size:45px;"">B  B  C  B  B  C  B  B  C  B  B  C  B  B  C  B            </div>","32","html-keyboard-response","216","418649","0.0-2.0-0.107","test","",""
"2511","","","survey-likert","217","421662","0.0-2.0-1.107","","{""Q0"":0}","[0]"
"1283","<div style=""font-size:45px;"">C  A  A  B  A  B  B  B  B  A  A  A  A  B  C  C  B  B  B  B</div>","32","html-keyboard-response","218","422947","0.0-2.0-0.108","test","",""
"2283","","","survey-likert","219","425732","0.0-2.0-1.108","","{""Q0"":9}","[0]"
"2312","<div style=""font-size:45px;"">A  C  B  A  C  A  B  C  B  C  C  B  C  B  C  A            </div>","32","html-keyboard-response","220","428046","0.0-2.0-0.109","test","",""
"1801","","","survey-likert","221","430350","0.0-2.0-1.109","","{""Q0"":9}","[0]"
"789.9999999999418","<div style=""font-size:45px;"">C  B  B  C  B  A  A  B  A  A  B  A  A  A  A  B            </div>","32","html-keyboard-response","222","431142","0.0-2.0-0.110","test","",""
"1375","","","survey-likert","223","433019","0.0-2.0-1.110","","{""Q0"":8}","[0]"
"411","<div style=""font-size:45px;"">B  C  B  B                                                </div>","32","html-keyboard-response","224","433432","0.0-2.0-0.111","test","",""
"1590","","","survey-likert","225","435524","0.0-2.0-1.111","","{""Q0"":4}","[0]"
"433","<div style=""font-size:45px;"">C  C  C  B                                                </div>","32","html-keyboard-response","226","435959","0.0-2.0-0.112","test","",""
"1159","","","survey-likert","227","437621","0.0-2.0-1.112","","{""Q0"":3}","[0]"
"796","<div style=""font-size:45px;"">C  A  B  B  B  B  C  C  C  C  C  C  C  C  C  C            </div>","32","html-keyboard-response","228","438419","0.0-2.0-0.113","test","",""
"1197","","","survey-likert","229","440118","0.0-2.0-1.113","","{""Q0"":5}","[0]"
"695","<div style=""font-size:45px;"">B  C  A  A  A  A  B  A  A  A  B  B                        </div>","32","html-keyboard-response","230","440815","0.0-2.0-0.114","test","",""
"2223","","","survey-likert","231","443540","0.0-2.0-1.114","","{""Q0"":6}","[0]"
"675.9999999999418","<div style=""font-size:45px;"">A  C  A  C  A  C  A  C  A  C                              </div>","32","html-keyboard-response","232","444218","0.0-2.0-0.115","test","",""
"5721.999999999942","","","survey-likert","233","450442","0.0-2.0-1.115","","{""Q0"":1}","[0]"
"560","<div style=""font-size:45px;"">B  A  A  A  A  A  A  B  B  B  B  C                        </div>","32","html-keyboard-response","234","451004","0.0-2.0-0.116","test","",""
"3375","","","survey-likert","235","454880","0.0-2.0-1.116","","{""Q0"":2}","[0]"
"3612.000000000058","<div style=""font-size:45px;"">B  C  C  B  B  B  A  C  B  C  A  C                        </div>","32","html-keyboard-response","236","458494","0.0-2.0-0.117","test","",""
"1305","","","survey-likert","237","460301","0.0-2.0-1.117","","{""Q0"":8}","[0]"
"554.0000000000582","<div style=""font-size:45px;"">C  B  C  A  C  A  B  C  B  A  B  A  C  B  C  A            </div>","32","html-keyboard-response","238","460858","0.0-2.0-0.118","test","",""
"10479","","","survey-likert","239","471839","0.0-2.0-1.118","","{""Q0"":7}","[0]"
"655.9999999999418","<div style=""font-size:45px;"">B  B  B  A  C  C  B  B  C  A  B  C  B  C                  </div>","32","html-keyboard-response","240","472496","0.0-2.0-0.119","test","",""
"1469","","","survey-likert","241","474467","0.0-2.0-1.119","","{""Q0"":7}","[0]"
"728.0000000000582","<div style=""font-size:45px;"">B  A  A  C  C  C  C  C  C  C  C  B  C  B                  </div>","32","html-keyboard-response","242","475196","0.0-2.0-0.120","test","",""
"1502","","","survey-likert","243","477199","0.0-2.0-1.120","","{""Q0"":6}","[0]"
"552","<div style=""font-size:45px;"">A  A  B  B  C  B                                          </div>","32","html-keyboard-response","244","477752","0.0-2.0-0.121","test","",""
"1411","","","survey-likert","245","479666","0.0-2.0-1.121","","{""Q0"":4}","[0]"
"395.9999999999418","<div style=""font-size:45px;"">A  A  B  A  B  B  B  B  A  A  C  C  B  B  A  C  C  C  C  C</div>","32","html-keyboard-response","246","480064","0.0-2.0-0.122","test","",""
"1147","","","survey-likert","247","481712","0.0-2.0-1.122","","{""Q0"":5}","[0]"
"392","<div style=""font-size:45px;"">B  C  B  C  B  C  B  C                                    </div>","32","html-keyboard-response","248","482106","0.0-2.0-0.123","test","",""
"1397","","","survey-likert","249","484006","0.0-2.0-1.123","","{""Q0"":5}","[0]"
"743","<div style=""font-size:45px;"">C  A  C  A  B  B  C  A                                    </div>","32","html-keyboard-response","250","484751","0.0-2.0-0.124","test","",""
"1315","","","survey-likert","251","486569","0.0-2.0-1.124","","{""Q0"":4}","[0]"
"589","<div style=""font-size:45px;"">B  B  B  B  B  B  B  B  B  B  B  B  B  C  C  C  C  C      </div>","32","html-keyboard-response","252","487160","0.0-2.0-0.125","test","",""
"6964","","","survey-likert","253","494626","0.0-2.0-1.125","","{""Q0"":3}","[0]"
"445.9999999999418","<div style=""font-size:45px;"">B  C  C  B  C  C  B  C  C  B  A  A  A  A  A  A  C  C  C  C</div>","32","html-keyboard-response","254","495073","0.0-2.0-0.126","test","",""
"1916","","","survey-likert","255","497491","0.0-2.0-1.126","","{""Q0"":6}","[0]"
